Time,GPS_X,GPS_Y,GPS_Z,Accel_X,Accel_Y,Accel_Z,Gyro_X,Gyro_Y,Gyro_Z
0.05,,,,-111.10380344590959,-0.0033550340383238873,0.003668546881297197,-1.1554674626288027e-05,-7.328502897588446e-05,-6.869791981240552e-05
0.1,,,,-0.0004348854908982576,0.0012877899556279447,0.0033661051362582966,-7.228265312754304e-06,-0.00014534286952375166,-4.057163447189034e-05
0.15,,,,4.980400279222682,0.5699491263603804,9.546314424079728,-0.0038754453608159565,-0.05277914066258129,0.00624369066118741
0.2,,,,4.527631263339187,0.3852656756193488,20.628888452839224,0.00019189106785250993,-0.07921184703934929,0.012343284121169607
0.25,,,,2.5857676047605893,0.22739024612201636,19.45691803588107,0.008246743437112859,-0.0590931292458371,0.016621006202301926
0.3,,,,3.1684290020226453,0.30429368364756293,15.302876596966566,0.010913480730954182,-0.024173360630879912,0.020784343753435536
0.35000000000000003,,,,3.171278788630131,0.37882212987426167,10.357484474587762,0.007494409745056466,0.013971101935195322,0.02487144902802239
0.4,,,,3.042148800021089,0.4303766129201709,7.14478393061419,0.0005632940191468033,0.04051658077058621,0.028906248836612747
0.45,,,,2.782488076957765,0.43069703146760313,6.3190739787891435,-0.00586066384489051,0.04835094853430991,0.032864668604263694
0.5,,,,2.5021929475000544,0.3849483316342698,7.30781826577363,-0.008867156884890726,0.03871349501322321,0.03673277675371398
0.55,,,,2.3253347614050246,0.3258784652512503,9.012272492591523,-0.007657420755347268,0.018705287124015927,0.04053505092116288
0.6,,,,2.300827907054631,0.28788540053900125,10.447010301910254,-0.0033978790234366024,-0.002543957318289521,0.0443035194741745
0.65,,,,2.3953417642451025,0.2871016044821121,11.10187647537241,0.0016491345786964265,-0.017573119312010547,0.048051724499579514
0.7000000000000001,,,,2.539284405991089,0.3191711899448277,10.979151010834983,0.005313461590964764,-0.022895359573842148,0.05178185848843298
0.75,,,,2.6699242580106874,0.36806980049685023,10.40420571579305,0.0064616056541174915,-0.019289242491006123,0.05550092407499857
0.8,,,,2.7489686511331834,0.41598855241854854,9.77146619205819,0.005262168273681655,-0.010399745378689618,0.05922037289780175
0.85,,,,2.6331717119781577,0.5055932906714519,9.307672371964387,0.002723068824248541,0.00042558155209597556,0.0643470261922277
0.9,,,,1.3271667546766799,0.6821089326260372,8.841585999055818,0.00015148659231493055,0.016609733814780883,0.07432859659822127
0.9500000000000001,,,,0.14450888346987834,0.152910936065531,8.973690191816546,-0.0020155210513519966,0.029212638975191215,0.0732336695483429
1.0,293.0623475999556,-1.6898083478310204,0.6787552183348754,-0.010749615081871104,0.19465886305232846,9.677989344976126,-0.004196538571140968,0.02833835306442459,0.07312654846384396
1.05,,,,1.9004363880804849,0.43408267111787785,10.826571549298889,-0.004471242686771167,0.004874658648761396,0.07649103766819176
1.1,,,,2.407950261313696,0.4256936178741423,10.714693674572855,-0.0012200494797478872,-0.014914694747426925,0.08020413762292863
1.1500000000000001,,,,2.465760978728504,0.4267537899433677,10.207574406312926,0.0032257282255739326,-0.02311881138141795,0.08390957261453869
1.2,,,,2.6188594160328713,0.4701145199604635,9.770830474503354,0.006043230913485571,-0.021698509283543208,0.08760594620890487
1.25,,,,2.7120760650298323,0.5293049090690649,9.482722908290581,0.006257732780362581,-0.014131071107414189,0.09130184862662262
1.3,,,,2.742778390261982,0.5820325414568057,9.38645438628207,0.004444276293849665,-0.0046804828854617765,0.09500607144846922
1.35,,,,2.7206383737302233,0.6165332604478956,9.448095429691485,0.0019396262524358054,0.0032067918679858773,0.0987183537422842
1.4000000000000001,,,,2.6681302957048665,0.6337068826608228,9.596689257565794,-2.9385835865897267e-05,0.007661459668187638,0.10243105846062249
1.45,,,,2.6101250220976975,0.6422232254312169,9.75839040751187,-0.0008439872213090852,0.008436597509679683,0.10613718261377958
1.5,,,,2.565151011858621,0.6517885235214801,9.879588939724831,-0.000541172463943236,0.006464323823975444,0.10983413497944607
1.55,,,,2.541755656755116,0.6686114214757921,9.936430584068976,0.00043071160161415386,0.0032058338831873466,0.11352250133377163
1.6,,,,2.539207813656749,0.6942341852849766,9.932340505569657,0.0015302989636827402,4.910613298202738e-05,0.11720385896876598
1.6500000000000001,,,,2.550768555683179,0.7267522205794165,9.888157912394819,0.0023576043166466535,-0.00208350049888352,0.12087980606093854
1.7,,,,2.5676160393046157,0.7628516117315408,9.830188025102835,0.0027466497859099347,-0.0028663094989943346,0.1245517485764854
1.75,,,,2.582090495436295,0.7995232404438529,9.780448765326193,0.002738042691744788,-0.0024817597517755824,0.12822064360567048
1.8,,,,2.5895914243336984,0.8349777507228278,9.75137157563185,0.0024894529977112197,-0.0014068115453313278,0.1318866988903545
1.85,,,,2.5890090862210973,0.868781624861222,9.745126677740684,0.002180384541459338,-0.00017731799152078542,0.1355493604232376
1.9000000000000001,,,,2.581990769940054,0.9014870365153617,9.756274297688659,0.0019460718514022041,0.0007918988846697503,0.13920763513159004
1.95,,,,2.571595312648824,0.9340828782654671,9.775857939906508,0.0018508051301521263,0.0012944146125359129,0.1428605040668576
2.0,296.5232795798831,-0.961394882049342,0.6827857262774644,2.560926691288588,0.9675194873241088,9.795237460163065,0.0018936311150341235,0.0013294741851901017,0.14650719378449667
2.05,,,,2.5521762580896765,1.0024303071479772,9.808593007776818,0.002031953740320316,0.0010380247883706654,0.1501472502113139
2.1,,,,2.5462438066335973,1.0390572594494738,9.813775777247777,0.002208991477317981,0.0006158896755206656,0.15378048310612627
2.15,,,,2.542871211560175,1.0773196678465398,9.811781388494614,0.002375566063748752,0.00023744949693924386,0.15740686251776367
2.2,,,,2.54108447975161,1.1169499856295504,9.80544623650589,0.0025020386261711517,9.637750075725058e-06,0.16102641263547676
2.25,,,,2.5397123632425345,1.1576336656579187,9.798007736649199,0.0025804904585193075,-3.9296957532190715e-05,0.16463912270156061
2.3000000000000003,,,,2.537801538836988,1.1991145652212172,9.792004338446752,0.0026198384712538066,5.6269832984499966e-05,0.1682448887070988
2.35,,,,2.5348364393374827,1.2412495074439747,9.788736099022707,0.0026375846575834375,0.00022930240297938187,0.17184349604506616
2.4,,,,2.530758737974967,1.2840126993225756,9.788267642787517,0.002651689951806673,0.00041056979881250833,0.17543464113169405
2.45,,,,2.5258428718205646,1.327462999828971,9.789799329970643,0.0026750199162798617,0.0005502593515182081,0.1790179745207837
2.5,,,,2.5205097964078798,1.3716945770960833,9.792179009867986,0.0027133155742897867,0.0006269833449088715,0.18259314111780395
2.5500000000000003,,,,2.5151543728152084,1.4167927721112117,9.79435794744124,0.0027661510185416375,0.0006453897931637336,0.1861598010239849
2.6,,,,2.5100343039883097,1.46281041493782,9.795673215426973,0.0028293713905933296,0.0006266366249499247,0.1897176321500803
2.65,,,,2.5052351127285655,1.5097668586327455,9.795926561338845,0.002897451173107534,0.0005968187231855642,0.19326632948150374
2.7,,,,2.5006982855642375,1.5576589964692347,9.795298676204661,0.0029650129044330367,0.0005774959957007706,0.19680561329569377
2.75,,,,2.496284612583211,1.6064694650592906,9.794174819681524,0.003027750439204822,0.0005805710735453878,0.20033524061446917
2.8000000000000003,,,,2.4918425037941754,1.6561662481591584,9.79296230451679,0.003083337551198489,0.0006077429709909122,0.2038549988071449
2.85,,,,2.432141646701428,1.7309281089378796,9.770639833558086,0.0031048461394465204,0.0011124965045842703,0.20797418363578735
2.9,,,,1.370845991184328,2.1279337366650157,9.45860667194397,0.003342308566706197,0.008442284558805092,0.22043141891046353
2.95,,,,1.1309861172317528,2.1759629096793067,9.642097218160139,0.0038683026873931586,0.012053015571359576,0.23170960453308972
3.0,302.2668736503215,1.1404611385212822,0.6792790519351117,0.04159056899796525,1.6802090254870952,9.545547043484744,0.0035630256448779757,0.01786469042714449,0.23126307022367254
3.0500000000000003,,,,-2.2315139874519043,1.4660624242725693,9.204576528340342,0.0005544023758591796,0.031162133663171342,0.22783461874810537
3.1,,,,-2.82105323676811,1.4255829603873742,9.747383742728937,-0.004207087873609556,0.032919769773712346,0.22430160328072188
3.15,,,,-1.4787148254827607,1.4714036624113358,10.722075510696182,-0.007323165149457142,0.013376310325784777,0.22185218435873988
3.2,,,,-0.3498464686200786,1.54690129072889,10.872344309874919,-0.005497376404617044,-0.010241613071834074,0.22224052287974416
3.25,,,,-0.33685265103096845,1.482762645491268,10.288573916319336,-0.00027094513246049106,-0.02179531633673123,0.22234140601751046
3.3000000000000003,,,,-0.1735075780306935,1.4865775273454807,9.806281651264507,0.004209105126304861,-0.022799176344953487,0.22236321058900801
3.35,,,,-0.05810968819909673,1.5234479901161606,9.491389685888855,0.005908824843941842,-0.016407604436101234,0.2223374418464289
3.4,,,,-0.007346781917963997,1.564047920884822,9.38099527560501,0.004843400922901384,-0.006950615859308658,0.22230772217027908
3.45,,,,-0.014353553112838445,1.5879309602723368,9.4363998103223,0.0023117755736948857,0.0017542048386719206,0.22229886471209023
3.5,,,,-0.058774087830059614,1.589849082674302,9.583040850323862,-0.00017487300439967515,0.007362364300935479,0.2223114078583531
3.5500000000000003,,,,-0.11509251110511555,1.576385925064482,9.74615394547445,-0.001639528251782769,0.009200429865160197,0.22233360105936745
3.6,,,,-0.16254162467340044,1.5583422136573473,9.872171218381693,-0.0018567485628254766,0.007923134447851518,0.2223540239223868
3.65,,,,-0.1898286639880306,1.544351561855675,9.936618287825924,-0.0011656371631375275,0.004897695089003129,0.22236656477211716
3.7,,,,-0.19532817922196208,1.538168007058071,9.941119447776094,-0.0001250338804751981,0.0015768007277210962,0.2223700814208391
3.75,,,,-0.18434494059505552,1.5391644049491062,9.904131812631869,0.0007815928866925535,-0.0009563816192586085,0.2223666409701172
3.8000000000000003,,,,-0.1653246073145892,1.5443567174015453,9.850058405542066,0.0012944015556574124,-0.002192748758233908,0.22235980126925345
3.85,,,,-0.14642149420289313,1.5504498774722908,9.800284023120586,0.0013828977702610972,-0.002168959762269715,0.22235305624489343
3.9,,,,-0.13322270362142224,1.5551174511532753,9.768004169482435,0.0011675986967668445,-0.0012863798189730745,0.22234868853806117
3.95,,,,-0.1278950548252283,1.5573894966885624,9.757067615492256,0.0008222240274668954,-7.782669946083292e-05,0.22234737204508723
4.0,308.1010191377243,4.797139599697153,0.6770944461944948,-0.12958521220733735,1.5574149008629368,9.763866636728823,0.0004986403293217198,0.000992544958388485,0.22234849929647282
4.05,,,,-2.165031115195775,1.298073070797414,9.136269870960364,-4.8567824919555256e-05,0.01563068655179606,0.21900477951425365
4.1,,,,-1.1301151859807277,1.4297841802853608,10.00537439782871,-0.002445352895004701,0.0117857569006239,0.21738168189447626
4.15,,,,-0.16698537237505318,1.5014345047649251,10.362849331516264,-0.002934949691692532,-0.00016501507124769407,0.21754134682939663
4.2,,,,-0.25476695171375197,1.4604254451674947,10.103429849493956,-0.0009853420605746097,-0.006961143034910217,0.2175813656733308
4.25,,,,-0.17851191752339346,1.4527159342994251,9.88912094051835,0.0012932437809923534,-0.009267898400416686,0.21759114383725464
4.3,,,,-0.1207466599681401,1.46454258432036,9.722642935494491,0.0026339411090920382,-0.007830763099415647,0.21758033876557398
4.3500000000000005,,,,-0.08811979630393449,1.4831374016260381,9.639808202218381,0.0026736720023120327,-0.0043094562196251095,0.21756435856799317
4.4,,,,-0.08103062374222718,1.4973068942730534,9.636038046068396,0.0017946030034125624,-0.00043706822659604746,0.2175547999536759
4.45,,,,-0.09356007823398829,1.5021343282908526,9.684359485221261,0.0006624768128649313,0.0025224204726643574,0.21755497873772642
4.5,,,,-0.11558074410927506,1.4987733818672966,9.752284589741393,-0.00018028355841351524,0.0039845870444072005,0.2175618415787789
4.55,,,,-0.1374709761811595,1.4914945634403938,9.813062003478779,-0.000501690266916844,0.003994204179090272,0.2175704414046751
4.6000000000000005,,,,-0.15277108785585145,1.4845650328491293,9.851310857963382,-0.00035812151613347047,0.0030101666992570966,0.2175770191754243
4.65,,,,-0.15905222900612428,1.4804683563153995,9.863435314299595,3.8507270724355384e-05,0.0016394782787888423,0.21757997554111583
4.7,,,,-0.15731910817344572,1.4796512067282555,9.85460535029833,0.00046132935160523734,0.00041212121047184654,0.21757955489414538
4.75,,,,-0.15061591171236055,1.4811992335618496,9.834321055274076,0.00075704829435139,-0.00035109395822895573,0.21757707031903464
4.8,,,,-0.14249360341644132,1.4837290223997122,9.812253753152461,0.0008713149855214338,-0.0005680056283028525,0.2175740948967978
4.8500000000000005,,,,-0.13581219345035778,1.4860516340323908,9.795420238900055,0.0008295659928445516,-0.00034491733982490143,0.2175718366022461
4.9,,,,-0.13211317554924915,1.4874832584117852,9.787039427274056,0.000699175913850461,0.00011385368716346038,0.2175708303976835
4.95,,,,-0.1315708336462506,1.4878710095655787,9.786842853312336,0.0005526604065165949,0.0005974123715014282,0.21757097131950545
5.0,312.8784175142042,9.526032289691184,0.676930674214113,-0.13336335082266576,1.4874525964253067,9.792277603127223,0.0004424717076878045,0.0009532118705460536,0.21757178277833308
5.05,,,,-2.165652803287545,1.228503679770862,9.155411008174543,5.928439020962676e-05,0.01509905046031136,0.21422392259310732
5.1000000000000005,,,,-2.722239652460544,1.1859640366768494,9.480141543637405,-0.0023541397606665587,0.02256790022607841,0.21057287006754707
5.15,,,,-2.7560292062217244,1.1389185669827115,9.934125590041859,-0.004871843236817715,0.020227927123308665,0.2069677357809755
5.2,,,,-2.8425334879118873,1.0651338012396632,10.157823715113294,-0.005707394419013199,0.01271640423195757,0.20338408523347776
5.25,,,,-2.8589088346735103,0.9887245053589026,10.197223220288931,-0.004748931862039266,0.003933405540919137,0.1998020078382917
5.3,,,,-2.8294471431853214,0.9245722420742621,10.102106989854102,-0.0028457493106726155,-0.003062871089972892,0.19621086784571581
5.3500000000000005,,,,-2.7768443888271555,0.8765907929885247,9.949214916690057,-0.0010644851832300605,-0.006759959738569328,0.1926055417807524
5.4,,,,-2.7225894709860716,0.8401330817853832,9.80558661487089,-0.00010393374265115403,-0.007128396214313704,0.18898736679906508
5.45,,,,-2.6818428160549193,0.807289780315836,9.711531153481044,-9.989324320754873e-05,-0.005138913664785945,0.18536137833110558
5.5,,,,-2.660978413858716,0.7715754177645691,9.67826167462936,-0.0007551646421121417,-0.002148334646117584,0.18173189948676852
5.55,,,,-2.6585074047642876,0.7302259251334555,9.69497388396945,-0.0016092058825569347,0.0006258544974447517,0.17810017249036258
5.6000000000000005,,,,-2.667962743395996,0.6840390129234224,9.7398138670049,-0.0022773149724478487,0.002419508366486585,0.17446494003786148
5.65,,,,-2.681394465464284,0.6357676093562457,9.790113698221006,-0.00257165118880887,0.003002463685589018,0.17082426178314397
5.7,,,,-2.6922222364724604,0.588321586175056,9.829257907767058,-0.0025013021585705156,0.002577157644550873,0.1671768013438692
5.75,,,,-2.6967624521042683,0.5436089927440497,9.849445259792654,-0.0021986197513061798,0.001582225345518501,0.1635221421800347
5.8,,,,-2.6943946180127325,0.5022211686953776,9.850992804073591,-0.001828542220513922,0.0004882176018238237,0.1598605560113291
5.8500000000000005,,,,-2.6867679185123463,0.46372795829925284,9.839551344415405,-0.0015206677468830902,-0.00035215296769518505,0.15619266890995573
5.9,,,,-2.676596881067576,0.4272146939825879,9.82271586602065,-0.0013390497446700152,-0.0007720582435151391,0.15251919489617952
5.95,,,,-2.6665268401214184,0.39176933229799304,9.807191150784561,-0.0012851393735760753,-0.0007821535484180944,0.14884075541930616
6.0,315.8944750358125,14.03682574917289,0.671106563201721,-2.658373690201002,0.35677633702066,9.797136620748194,-0.001319865396713897,-0.0005119731372080592,0.14515778835894164
6.05,,,,1.4062060874274858,0.8444492788582265,11.085698688145273,-0.0009272391125828605,-0.02813768463555395,0.1482449717112532
6.1000000000000005,,,,2.514424692657096,0.8708225617306264,10.451797372024004,0.0031242657617621093,-0.04283010988224802,0.15198882450069093
6.15,,,,2.577504345771234,0.8973077167777095,9.553469063704101,0.007566418982405598,-0.03824063174891252,0.15568252290147308
6.2,,,,2.757174002281954,0.9757586826173776,9.107090086981168,0.009011545740870491,-0.02354088896593167,0.1593429210336013
6.25,,,,2.800954415537464,1.0622500083143378,9.021902524559529,0.0071908039794959695,-0.006379641447085311,0.16300844401244077
6.3,,,,2.0260564707926534,0.680312840177129,8.958057829444911,0.0036543257231616,0.012583491782201334,0.15781298696422866
6.3500000000000005,,,,0.33629563983812505,0.8457763746279854,8.958418052764825,-0.0015234174136039697,0.031826545499006806,0.157643557464262
6.4,,,,-0.033666653740619425,0.848223859277591,9.659543891876739,-0.005554236884560895,0.035950291745487244,0.15790400079242392
6.45,,,,-0.17499802106191173,0.7963246192532635,10.211722170787082,-0.006714887770957834,0.027647171173912306,0.15791023679427918
6.5,,,,-0.2684247703478048,0.7530601819766801,10.436871293985522,-0.004961849321752524,0.013766186556813553,0.15790288761831583
6.55,,,,-0.26592679533875424,0.7293237550861518,10.394640747682518,-0.0016606075883756133,0.00025317413551757047,0.1578889166912739
6.6000000000000005,,,,-0.20443989752922354,0.7297508424081838,10.187821390612674,0.0015219576928304059,-0.008941681551831013,0.1578719735288231
6.65,,,,-0.12099849266774872,0.7473741732809164,9.935623706731777,0.0034283701176297606,-0.012440018992356246,0.15785189913330622
6.7,,,,-0.046932217587008274,0.7706202213170653,9.729684494131426,0.003734024926097609,-0.011012277183512227,0.1578331379082802
6.75,,,,-0.0011868856487822314,0.7892986352978163,9.61616379524503,0.002812053918168597,-0.006653994949699728,0.1578213447382756
6.8,,,,0.011431517031284304,0.7981285003612706,9.597904359361674,0.0013631910570534142,-0.001599364344962636,0.1578184333549455
6.8500000000000005,,,,-0.00250501149758044,0.7971734610597885,9.648576108576131,4.6933555491946745e-05,0.0024185872999526736,0.1578219320321298
6.9,,,,-0.03044703974893051,0.7900129623648356,9.73036262798347,-0.000741525547537488,0.004523906397604715,0.157827731587231
6.95,,,,-0.05955079999679195,0.7811784475033019,9.808860870720999,-0.0009179935653613647,0.004687744060686746,0.15783268700021028
7.0,317.8249320127596,18.37506522028877,0.676703749831619,-0.08069608522231837,0.7741752104002211,9.861954657068166,-0.000629008924239892,0.0034706725796658324,0.15783541018118694
7.05,,,,-2.1194959853969646,0.510038367822281,9.237195841484045,-0.0003751014891005818,0.01566119464935343,0.15446092130385558
7.1000000000000005,,,,-2.6727666296127457,0.4768776928577027,9.546277299669915,-0.0019965356773947404,0.02151163141950631,0.15076492456285956
7.15,,,,-2.1326389393754153,0.4610606927696444,10.17951982954269,-0.003870222452328414,0.013787691817227493,0.14668523486211799
7.2,,,,-0.2579358903569203,0.6813951801688929,10.804792381642054,-0.0037598011499974204,-0.007839414736860315,0.14687567190361836
7.25,,,,-0.21043291657759766,0.6273092798094898,10.303421228455685,-0.00040180134859897377,-0.01920732138088456,0.1469340942853195
7.3,,,,-0.09171634368078235,0.6226961937243113,9.847973199253058,0.0030487944780469983,-0.020803604165289452,0.14694157333845548
7.3500000000000005,,,,0.019109652110191395,0.6489283170754127,9.548106917496973,0.004597956184995993,-0.015558058344507157,0.14692980643831954
7.4,,,,0.06839974056432686,0.6813103562272063,9.431287941589702,0.003935878634049557,-0.007264953969269338,0.14691684722756373
7.45,,,,0.06575212999863164,0.7019298311106525,9.470049898518988,0.0019406749598164528,0.0005915858853309149,0.14691367316331214
7.5,,,,0.028303901213145865,0.7046861979711369,9.597819779451617,-0.00015883311968971651,0.005808478313150416,0.14691984500779043
7.55,,,,-0.021345779766607193,0.6939645462989353,9.74548242625749,-0.001475203262389017,0.007681936341499812,0.14692929881518677
7.6000000000000005,,,,-0.06429594765829681,0.6786248818086162,9.862343223519655,-0.0017337893657955574,0.006724552318265009,0.14693701547711466
7.65,,,,-0.0898917432305557,0.666317902860896,9.924300662239743,-0.0011721329493863362,0.004122869005554291,0.14694100612927827
7.7,,,,-0.09612244137837725,0.6606965433837672,9.931551676164124,-0.00026152381657174067,0.0011732973965581466,0.1469413609735411
7.75,,,,-0.08732823425692304,0.6615010774551899,9.900198609253243,0.000560049535952865,-0.0011348214604924695,0.14693914962967147
7.8,,,,-0.07086610478309176,0.6661899499635122,9.85221734059839,0.0010395634771878564,-0.0023146913796067894,0.14693585604869805
7.8500000000000005,,,,-0.054023206774537244,0.6717702289530723,9.807148621232415,0.0011324911789247127,-0.002368336814975858,0.14693291669532804
7.9,,,,-0.04192488379630546,0.6760442254858946,9.777265821525674,0.0009412761271746521,-0.001632854365510203,0.1469312452388642
7.95,,,,-0.036699887616322854,0.678067863224124,9.766419574338922,0.0006258278747013713,-0.0005754022052459989,0.14693101208181694
8.0,319.02797393498713,22.749675228618067,0.6771090084016519,-0.03776908209532413,0.6779890334678321,9.77166842281985,0.0003291252968504102,0.0003866054415696658,0.14693180629417305
8.05,,,,-2.0722234356478806,0.4156492080438586,9.141556339130245,-0.00010110520733480106,0.014984978338814074,0.1435548658102781
8.1,,,,-2.63353849162876,0.3824986938276292,9.475541014690599,-0.002224888239538026,0.022679980410698925,0.13985605557761305
8.15,,,,-0.8854833559509863,0.524467931409279,10.521935516903115,-0.004279221798393393,0.007734506495430027,0.13794667024351892
8.2,,,,-0.1696390359695,0.586113923938429,10.553889316757171,-0.003062911176883099,-0.008600984802351717,0.1381325481219311
8.25,,,,-0.17383047942882066,0.5466550458140286,10.12280635744001,0.00031834157328249795,-0.016112189500838384,0.13814911496753837
8.3,,,,-0.054155568974563514,0.5535080538272551,9.784155464921575,0.0031129819449989453,-0.016289648847061654,0.13814811005035088
8.35,,,,0.023463110681450156,0.5801646745008372,9.569838962043905,0.004021072245555214,-0.011450874613740508,0.13813693749668018
8.4,,,,0.0553669717755905,0.6070239986812628,9.503451713618643,0.0031115427870409967,-0.004693307699450695,0.138128375704594
8.45,,,,0.047352226249038024,0.6211464790541623,9.55257888556733,0.0013015917294690459,0.0013399286006281347,0.1381281294108221
8.5,,,,0.014544387186901913,0.6201932932905104,9.66179588107575,-0.00038103414507710385,0.0050886967928057735,0.1381340729631756
8.55,,,,-0.025149223168980862,0.6095127602476306,9.777815608843362,-0.0013004509993304607,0.006173145152031355,0.13814136162726048
8.6,,,,-0.05764008493773238,0.5967475463593722,9.864061121454961,-0.0013453643154027403,0.005121985267661653,0.13814665711578808
8.65,,,,-0.07559096464774454,0.5876072098211809,9.905287169801188,-0.0007851041329169251,0.0029262547720147435,0.13814891604965288
8.700000000000001,,,,-0.0783420196445519,0.5842540000801302,9.9045318550113,-2.3844420336125902e-05,0.0006014391930380014,0.13814851803028583
8.75,,,,-0.06990937457473412,0.5858496663089373,9.8759874885495,0.0006034156679072303,-0.0011191979012326763,0.13814646786968135
8.8,,,,-0.056314278543966395,0.5900630616111467,9.837168519317695,0.0009286216165221146,-0.0019124074897915954,0.1381439482879983
8.85,,,,-0.043205870072009836,0.5945124700836192,9.802782657381048,0.0009481310763272206,-0.0018322326171714357,0.1381419561269378
8.9,,,,-0.0343310726090624,0.5976283248736092,9.781438455385208,0.0007621572446294088,-0.0011760930965938193,0.13814100981762403
8.950000000000001,,,,-0.031018643675346774,0.598874790902904,9.775167436779785,0.0005019604132459834,-0.00032041313547230777,0.13814108672555855
9.0,319.559318863778,26.97408135627019,0.6770622630592686,-0.03252700056950157,0.5985258175559055,9.78097066581015,0.00027522594161243785,0.0004161920864088779,0.13814180678221757
9.05,,,,1.992457282662445,0.8582337714176862,10.43681258231396,0.00036970954930365776,-0.013140039845492625,0.14152302151163604
9.1,,,,2.5406024420825273,0.8867408272113139,10.12879259301298,0.0023860584131130316,-0.02054843006617984,0.14522320893806887
9.15,,,,2.568615268592416,0.9161371066984018,9.68459006425204,0.004668006103823844,-0.018520882289960214,0.14889311745012404
9.200000000000001,,,,2.655263769774454,0.972558137279927,9.462009104847587,0.0054927151123383335,-0.011491430527678828,0.1525454627392654
9.25,,,,2.6751665159876192,1.0336866223883205,9.417014042321172,0.004693029889815485,-0.0031686725233160693,0.15619620762939493
9.3,,,,2.6496426935513737,1.08537807965225,9.503654737855271,0.003024958309361651,0.0035166004780031695,0.15985151687926766
9.35,,,,2.6001847013367505,1.1235431666391316,9.649307681551262,0.0014724350375618063,0.007092787295667942,0.1635086122060514
9.4,,,,2.5482764323583043,1.152592662457836,9.789438497165454,0.0006858392719888334,0.007499414722135128,0.16716093811475582
9.450000000000001,,,,2.5091600856409686,1.180140388979331,9.883942778938565,0.0007899936666098424,0.005639783631814953,0.17080333443925091
9.5,,,,2.4891189937222293,1.2122725952371802,9.920144954835353,0.0015046063278891806,0.0028013906083674813,0.17443351157874123
9.55,,,,2.4866773824758743,1.251455821458729,9.906907335534601,0.00239839542299658,0.00015178722396118298,0.17805149398501982
9.6,,,,2.4956291754420117,1.2968739618565577,9.864613938167762,0.0031134108064596183,-0.001568615131579436,0.18165879909662053
9.65,,,,2.508382779534529,1.3459797181601538,9.815320683984092,0.003477090680334233,-0.0021304121915011695,0.18525759874982423
9.700000000000001,,,,2.5186014737071223,1.3961060024264083,9.775794259204059,0.0035007816358185026,-0.0017219232019947493,0.1888497805398698
9.75,,,,2.505168829067131,1.4531550474889405,9.747653542811761,0.003300842965235339,-0.0006160921223110015,0.1926293600600073
9.8,,,,1.361897806011387,1.7616514555252907,9.383636234444047,0.0031406986853140754,0.008458976958294848,0.20318088941509188
9.85,,,,0.02584839209391389,1.2592898207153946,9.272692466036485,0.002457396352556554,0.020269412558664733,0.20229215243843576
9.9,,,,-0.10364341592390029,1.3201356442843966,9.754167768689145,-0.0003671069511399064,0.021905882215668613,0.2021905358096415
9.950000000000001,,,,-0.19142087269442012,1.3161139042061025,10.078463763961437,-0.0024769590428498967,0.016352391729000458,0.2022127062782096
10.0,319.3971752002374,32.441525955877324,0.6750347409559012,-0.2432568339320275,1.289204945460974,10.197515813793656,-0.0027031815448798876,0.00783406108762985,0.20224975450667768
10.05,,,,-2.2666541180954587,1.0063249223932753,9.510014466180763,-0.0016729668346633735,0.013869617670888979,0.19892201001902035
10.1,,,,-2.780776815009897,0.9571210619978416,9.692466648418835,-0.002144370108673831,0.016190619657378367,0.19526790895466853
10.15,,,,-2.7614890519792326,0.9191240065275263,9.988669758383637,-0.00321417366921475,0.01224126359984969,0.1916398280205825
10.200000000000001,,,,-2.8047194547759458,0.8623834751569727,10.092128435607474,-0.0035719129861302265,0.0059976170079554065,0.18802542871722294
10.25,,,,-2.7973322631847823,0.8025559022207532,10.072136410926252,-0.0030135025984564267,5.734413901217419e-05,0.18441205944079703
10.3,,,,-2.7640818314809086,0.7493468969175667,9.97551591772638,-0.001966912031971702,-0.003872950337137904,0.18079285813572737
10.35,,,,-2.722342051437361,0.7057119100453539,9.859762454572197,-0.0010364581874769958,-0.005265383694227141,0.1771644330015887
10.4,,,,-2.685902891190267,0.6689419281769843,9.767777536731268,-0.000614712705726129,-0.004534277142766471,0.1735273831918432
10.450000000000001,,,,-2.662640175243413,0.634138286623282,9.719674799315683,-0.0007490271818575505,-0.0025949383480099826,0.16988421521137384
10.5,,,,-2.653953087349365,0.5974037549238629,9.714982912176454,-0.0012269539911721457,-0.00042485966357516425,0.16623687163450662
10.55,,,,-2.656465201302105,0.5573394500067408,9.740218104977025,-0.0017535953146098954,0.0012469335778448635,0.16258573752962951
10.6,,,,-2.6645657399665037,0.5148176325732914,9.777587687786289,-0.0021036011709194423,0.0020749140068933468,0.1589301222141258
10.65,,,,-2.672808679677918,0.47181318664008487,9.811810073495085,-0.0021897820573749385,0.002075509365418781,0.15526916474530447
10.700000000000001,,,,-2.677484903888838,0.4301961508446614,9.83375988384459,-0.002050606142655824,0.0015062806692141151,0.15160237995924225
10.75,,,,-2.6771617581399174,0.3910299437976499,9.841033888605137,-0.001792631875906734,0.0007128693775067667,0.14792975019267735
10.8,,,,-2.672372886097424,0.3544640136792198,9.836365982479032,-0.0015280099939158922,-1.3839117446475912e-06,0.14425159176582786
10.85,,,,-2.664832005898822,0.3200189993173533,9.82509409744936,-0.0013329098646897085,-0.00045213335734302037,0.14056838131678745
10.9,,,,-2.6565541127515564,0.2869921054535454,9.812729965116684,-0.0012341524618249254,-0.0005913697001177151,0.13688061091428577
10.950000000000001,,,,-2.6491665269025897,0.25478329802400573,9.803293201363758,-0.0012178628360661726,-0.0004788926642572054,0.13318869287445773
11.0,318.40185006706804,37.28474795670636,0.6711207490962843,-2.6435489220732884,0.22305883009965094,9.798630625915088,-0.0012485625183552465,-0.00023069338857414733,0.12949292501859525
11.05,,,,1.419284472324177,0.7149238467192408,11.09067019102234,-0.0008712869537429034,-0.027973319062390704,0.13257392831151746
11.1,,,,2.5272865118605274,0.7398494652240588,10.457919353418832,0.0030565525465467195,-0.04281785515447544,0.13631473126700655
11.15,,,,2.5909336883690375,0.763139939203887,9.558391414213018,0.007374949817131508,-0.038355834707791255,0.14001448917847545
11.200000000000001,,,,2.7716302250936407,0.837673791866903,9.10980489424319,0.008742231894831873,-0.0237284040604634,0.1436883274712963
11.25,,,,1.8321444911946076,0.3848488458566879,8.703638865654668,0.0067576386003405445,0.0003734240837824486,0.13689743849079525
11.3,,,,0.3729550817530353,0.6865823498255971,8.697215537509864,0.0011969037707646852,0.025360874284672364,0.13732354258367002
11.35,,,,0.08116636979221983,0.6787631989596947,9.430403261513597,-0.004251636698899121,0.03484245289254178,0.1375388790426166
11.4,,,,-0.0937153190381769,0.6312282725017002,10.047982322814564,-0.006939531464317414,0.030574131160766432,0.13756413523755992
11.450000000000001,,,,-0.21903606750028848,0.5800749372131295,10.369532611572334,-0.0061826804989581815,0.018541264942886604,0.13756495193486282
11.5,,,,-0.24690197565476293,0.5457281692433913,10.411592274316236,-0.0031353782567736413,0.004838688370235983,0.13755651154865534
11.55,,,,-0.20555790287099077,0.5377402222817953,10.256320938379929,0.00038116468599372843,-0.005882928891795746,0.13754556310479776
11.6,,,,-0.1296035865620742,0.5513422861965677,10.018546497373777,0.0028886295994988752,-0.011368322290784551,0.13753133404517898
11.65,,,,-0.05217498162138747,0.5747463719020849,9.797888427928596,0.0037597138179715868,-0.011649856907276962,0.13751618724740897
11.700000000000001,,,,0.0035426896004351546,0.5962044115424495,9.65441423781215,0.003187035306592009,-0.008299759937944576,0.13750522898373707
11.75,,,,0.027804121612624817,0.6085538965657445,9.604738092496547,0.0018309054130127558,-0.003470573076073221,0.137501469932829
11.8,,,,0.023166665187442682,0.6104072912507279,9.632219505201807,0.00041121125695439426,0.0009273496742278635,0.1375037602724335
11.85,,,,7.576171949200475e-05,0.6046698906347586,9.703198623861304,-0.0005744341267214707,0.003715273848300666,0.13750866879245013
11.9,,,,-0.028712943616160634,0.5959172459663025,9.782491986348587,-0.000946976575814901,0.004565363773611965,0.13751317493833953
11.950000000000001,,,,-0.052747256803555305,0.588119429316364,9.844067344799601,-0.0007929600808550775,0.003831140192568055,0.13751583382705587
12.0,316.955539822498,41.18165653552208,0.6765807999491538,-0.06631887082796485,0.5834799826461199,9.875557831667875,-0.00033982574970744937,0.002228953846043898,0.13751650107104074
12.05,,,,-2.0980860168866533,0.32115915780681686,9.232327577563582,-5.568934428844526e-05,0.014503370158930306,0.1341348755935523
12.1,,,,-2.6471068472752055,0.2929044902354672,9.530397618171909,-0.001678182404190386,0.02073796502851156,0.13042935407000072
12.15,,,,-2.670260664906016,0.26644729321552846,9.952805546919931,-0.003645215188304209,0.01796788087331713,0.126738505947658
12.200000000000001,,,,-2.747894504768463,0.21561840627224887,10.150273827578665,-0.004274263876593456,0.010712720184025028,0.1230509271689442
12.25,,,,-1.9892012080625208,0.14943862792858975,10.452761932347066,-0.0033150774908295164,-0.0033977238862721256,0.11807441666746932
12.3,,,,-0.17688216029314333,0.4211117493230232,10.679412676075607,-0.0009328933172258435,-0.022868363896016076,0.11848374468314134
12.35,,,,-0.10780412588168936,0.3833496697726326,10.007503098047215,0.0028994289190456667,-0.02806490820584542,0.1185373128044081
12.4,,,,0.03413923875989111,0.4030093840472632,9.545174869614456,0.005187742870962384,-0.022932596817775062,0.11853772515309446
12.450000000000001,,,,0.1235120592165938,0.4397952886642604,9.33009609735212,0.004931087987651028,-0.012527579768319634,0.11852756846405013
12.5,,,,0.13536993775753772,0.4683671550774035,9.334972023747447,0.0027839397144671335,-0.001677639908135869,0.11852438633932547
12.55,,,,0.09466805499518106,0.4768222554090953,9.482511264271073,0.00014160522643991624,0.006217056026375923,0.11853077740069243
12.6,,,,0.030412728313395174,0.4669089109300396,9.678431801022999,-0.0017706707398677517,0.009751815135820942,0.11854044568925055
12.65,,,,-0.030218998673722082,0.44837342833658683,9.847507996172567,-0.0024031149945111254,0.009271402179519182,0.11854776958162037
12.700000000000001,,,,-0.07017270678831211,0.43145472746547797,9.94859791379685,-0.0018952172324650273,0.006201270245979075,0.11855111966706569
12.75,,,,-0.0842511325109357,0.42217961459122316,9.974684010308511,-0.0007852290368842113,0.002280565093103693,0.11855116698523142
12.8,,,,-0.07660506785885543,0.4214516123536179,9.943145884003036,0.00033978496054431605,-0.001051265831730962,0.11854903670553248
12.85,,,,-0.05640840114719035,0.42664225658877597,9.882407328751992,0.0010843432078637603,-0.0029852549843963714,0.11854590100631701
12.9,,,,-0.03359270915751461,0.4339165519272218,9.819970126535724,0.0013220385088338216,-0.003383675402298282,0.11854298529994216
12.950000000000001,,,,-0.015748459071470572,0.4400777301164788,9.77475077816983,0.0011442139436136371,-0.002609815267512458,0.11854123654839523
13.0,315.23513987250504,44.462847963808144,0.6771570814299983,-0.006640047508361422,0.44345697655719185,9.75444275042612,0.0007497006720595657,-0.00126283213213404,0.11854094286333296
13.05,,,,2.0230732380381915,0.705394982136701,10.400448769345951,0.0005396519718735911,-0.013917116540412628,0.12192675698583597
13.1,,,,2.5708549196661457,0.73063471823673,10.096591665646555,0.002196121329785713,-0.020496534610125978,0.1256351530956163
13.15,,,,2.595126434916811,0.7544169947165885,9.664623962471962,0.004214355545788674,-0.017937756058895225,0.1293198916666932
13.200000000000001,,,,2.676813165453664,0.8043617229849479,9.456350700172083,0.00492419832997284,-0.010741957349188095,0.13299234671297913
13.25,,,,2.692498939628257,0.8589270237249631,9.423002524223278,0.004139099701988276,-0.0025554570460764557,0.13666502114823123
13.3,,,,2.6647075685678177,0.9046244358944572,9.51610460103982,0.00256212549347947,0.003824322315558472,0.1403417813327859
13.35,,,,2.615173307361953,0.9375927495504918,9.662760054568695,0.0011212227242233764,0.0070686032682296205,0.14401934704414757
13.4,,,,2.564851918491329,0.9621442775834737,9.799815895002576,0.0004261257832412265,0.0072235847449082236,0.147691963978646
13.450000000000001,,,,2.5281014446109134,0.9856202870307375,9.889321314576707,0.0005821356484612113,0.0052421568402274184,0.1513556249755753
13.5,,,,2.5103654555041195,1.013809943243427,9.920675626607503,0.0013078771084867333,0.002406905626083905,0.15500888958840842
13.55,,,,2.5096177741254175,1.04895407919979,9.904150270129067,0.0021828537176881804,-0.00015577495848540857,0.15865211683229805
13.6,,,,2.519459798738255,1.0901188783613607,9.860650535648244,0.0028646357631648403,-0.0017592318835793082,0.1622867127142279
13.65,,,,2.5324053762739953,1.1347425186414635,9.811974452533821,0.0031951002810287543,-0.0022202313028008578,0.16591447478526059
13.700000000000001,,,,2.5423963826995695,1.1802180099001411,9.774163302017522,0.003195341245185274,-0.001754039861237466,0.1695368595367309
13.75,,,,2.546122790783911,1.2248773710387493,9.75476701360074,0.0029945240536629406,-0.0007848603068860413,0.17315442234617634
13.8,,,,2.543147571046656,1.2682474492997062,9.753466514114391,0.002745499185234934,0.0002460837389979907,0.1767667385987188
13.85,,,,2.535151144784305,1.310773141876188,9.764747317274688,0.0025634885662210493,0.001017486309691729,0.18037276706733832
13.9,,,,2.524774878711268,1.3533194411900151,9.78118707312195,0.0025008717508851687,0.0013865253156482643,0.1839713473689877
13.950000000000001,,,,2.5145301842768064,1.3967178577550234,9.796225502386715,0.0025528905395230655,0.0013759962655112315,0.18756155337034258
14.0,312.3746509614217,48.4816835365112,0.6826678750066835,2.5060842021197285,1.4414994848949614,9.805798011826246,0.0026803362155117644,0.0011159515872524806,0.19114281309916809
14.05,,,,0.9967219740953187,1.8680116645000464,9.34207798541408,0.0030034053661040397,0.010949851536296011,0.2043770601214408
14.1,,,,0.014031675873306462,1.2538848581889008,9.390463223911791,0.0026495769005525933,0.02011827501388756,0.20315490958607885
14.15,,,,-0.12721268228047433,1.3297967644011603,9.82315531743554,-3.2509310153078144e-06,0.020166209278585905,0.20305983420282908
14.200000000000001,,,,-0.20220997216949751,1.3273661203925835,10.100246477800553,-0.002045360950702281,0.014077198442745964,0.20309111066397129
14.25,,,,-0.24003870074056313,1.3018766392045822,10.181857192862857,-0.00230779216952029,0.005884496797721691,0.20313793448616196
14.3,,,,-0.22643097013046556,1.278983150014704,10.119384942678852,-0.0010875371148888415,-0.0012507811726045286,0.2031741534217645
14.35,,,,-0.18525130425942649,1.2701130902664666,9.982506861944074,0.0006116020134404564,-0.005523747821274106,0.2031916092785819
14.4,,,,-0.13767390668368315,1.2751546411138526,9.839458156904682,0.0018584698467434425,-0.0065887777690294995,0.20319316663352008
14.450000000000001,,,,-0.09982038728229138,1.2872689872513239,9.735645040268828,0.002228021313628476,-0.005170219961927709,0.2031870723111641
14.5,,,,-0.07977427951491688,1.2987730182961041,9.688522369638239,0.0018211621285043366,-0.002493273537023401,0.20318148311310866
14.55,,,,-0.07779236485316302,1.304955369422954,9.692606764718708,0.0010343601882182828,0.0002406008324126227,0.20318058069362863
14.6,,,,-0.08869769470290195,1.3050386431541239,9.72927311414635,0.00028636822685925974,0.00219893730827736,0.20318422463617059
14.65,,,,-0.10512692888335977,1.3010253131947551,9.776758313579696,-0.00016029288535173163,0.00304450388494115,0.203189977261441
14.700000000000001,,,,-0.12041916455343828,1.2958098616555704,9.81750748772697,-0.0002456503511995889,0.002877013087698429,0.20319527654771993
14.75,,,,-0.13037503702989697,1.291686350666981,9.841788096561881,-6.11159372094551e-05,0.0020656182981020053,0.20319858423278117
14.8,,,,-0.13371529184699052,1.2897091236167004,9.84787065047388,0.00023925884297044074,0.0010549734958572449,0.20319956066217243
14.85,,,,-0.13152826494619052,1.2897906715874896,9.839884254886035,0.0005161139844708978,0.00020967849318741228,0.2031987359820555
14.9,,,,-0.12619972720138165,1.291174551919339,9.824712491307626,0.0006871501669191919,-0.00026910451675418777,0.2031970334241083
14.950000000000001,,,,-0.12030193728936425,1.2929484141817407,9.809113439092405,0.0007337831147851697,-0.00035258285778566015,0.203195335763862
15.0,307.88468806927585,52.85340347345372,0.6768695774541089,-0.1157748980940047,1.2944045577833732,9.797805032184597,0.0006840446627152185,-0.00013920540640486613,0.2031942066071782
15.05,,,,-2.1429335456302523,1.036361590309648,9.148174556453844,0.0002730350654013981,0.014200242426674158,0.19983747545346411
15.1,,,,-2.6969520610253923,0.9967237885695822,9.466530020064553,-0.0021699927413404737,0.022038761292336752,0.1961733889096135
15.15,,,,-2.730720619136737,0.9527417034058109,9.920566022359596,-0.00472245224033436,0.020078459488189968,0.19254823043142766
15.200000000000001,,,,-2.8190113695474155,0.8820232396787104,10.148604739616912,-0.005588155571314785,0.012840527229781675,0.18894014346823945
15.25,,,,-2.8379277905454967,0.808847048326866,10.193933282950592,-0.004645833928044693,0.00417730596702473,0.1853327209261826
15.3,,,,-2.8108531144901656,0.7480638466603028,10.104040367313033,-0.0027424949082875956,-0.002839576062708965,0.18171758416259562
15.35,,,,-1.2861861611274632,0.7202635347406343,10.446475494163282,-0.0009472139231245267,-0.0172768555520386,0.17683051147112017
15.4,,,,-0.11427029694185081,0.9703793323866915,10.266177393309087,0.0015140233309657626,-0.027907382958507455,0.17739566535938597
15.450000000000001,,,,-0.07080162528474199,0.9444326143873489,9.67550538651112,0.004156757243064243,-0.025544968044462296,0.17741329839216596
15.5,,,,0.04554250450485218,0.9706539509414752,9.372736804219254,0.004875915870749153,-0.01610799863266799,0.17740135552281264
15.55,,,,0.08227711004267582,1.0007943763765441,9.307400033261336,0.0035674855799987665,-0.004745367418833741,0.1773851893462651
15.6,,,,0.054641513356101415,1.0176461293018693,9.417184886204629,0.0012255046558982282,0.004500445034329718,0.17738236125153667
15.65,,,,-0.006671174081822787,1.0161528391721975,9.608469377215533,-0.0009065716225843876,0.009535628035692547,0.1773914163797552
15.700000000000001,,,,-0.0722347556623066,1.001933888572902,9.795465350048154,-0.002013758083156683,0.010207393675976882,0.1774042810545217
15.75,,,,-0.12076593652573216,0.9846943201750393,9.923652191903741,-0.0019455927952327842,0.0077121627924907794,0.1774146201567715
15.8,,,,-0.14325455220418531,0.9722504668649696,9.974660428098705,-0.0010674560704455344,0.0038057270947288537,0.17741974717738584
15.85,,,,-0.1414319257923712,0.9678357587915968,9.959158510680151,5.781646848242324e-05,0.00010414141385542175,0.17741954337994842
15.9,,,,-0.12362333660158135,0.9704710425701045,9.903824547858498,0.0009562732936775984,-0.0023506609216299595,0.17741548842253768
15.950000000000001,,,,-0.10017048473679381,0.9768935809597544,9.838154448345376,0.0013911991483254614,-0.003217954708147268,0.17740996579598806
16.0,303.2083408977995,55.909067395900244,0.6768563068203551,-0.07980818566336081,0.9836077937183647,9.784922831227314,0.0013673266713189508,-0.002737971507639324,0.17740531588770647
16.05,,,,-2.096949939693374,0.7283430707053447,9.11124160683984,0.0007644171971503682,0.012510292357351014,0.17403530874249662
16.1,,,,-2.64835795653875,0.6940892561723176,9.424536401318104,-0.0018679908375712566,0.02143119733693351,0.17035255120915563
16.2,,,,-2.7801855829934063,0.5891061463426747,10.132705498226109,-0.005515374277859957,0.013585048724999122,0.16305402267885566
16.25,,,,-2.805812842836934,0.5210196765081593,10.194237350927336,-0.0045745851712661245,0.004980542193937619,0.15940888250024685
16.3,,,,-2.783826922870276,0.4658713195318761,10.115471782325548,-0.0026143130962166033,-0.0022786989727653444,0.15575813605742836
16.35,,,,-2.7355704716416804,0.4275144568260895,9.970109687143234,-0.0007379131499508586,-0.006459482496138613,0.1520984739118405
16.4,,,,-2.682493584538149,0.40111465167352256,9.82577048277459,0.00031697932061308616,-0.007314788251250215,0.14843002006937395
16.45,,,,-2.640638319832019,0.37856333635976136,9.725601319016153,0.00038709268598940375,-0.005665241862974098,0.1447557479074577
16.5,,,,-2.6176732540019976,0.3532138549503017,9.684331115080965,-0.0002411475967317184,-0.002808772834801113,0.141078621391267
16.55,,,,-2.613321841184946,0.322190224507342,9.694094750688174,-0.0011031627862726834,1.582781016488873e-05,0.13739963195327215
16.6,,,,-2.621900681242717,0.2862282594944917,9.734728584891723,-0.0018012549709718667,0.0019744281659691454,0.13371804440748114
16.65,,,,-2.635698334971455,0.2480653146867809,9.783913733363026,-0.0021321580739144825,0.002754379082854591,0.13003269520299854
16.7,,,,-2.647921446693466,0.21063263433523852,9.82436663561546,-0.002092181243677073,0.0024917409083444614,0.12634288885969241
16.75,,,,-2.6544306592085407,0.17588302607517958,9.847116433314902,-0.0018063228168153183,0.0015897367649080048,0.12264853015990544
16.8,,,,-2.654124060874229,0.14446111110414211,9.851308835006336,-0.0014381205909699897,0.0005154113212612666,0.11894988908736141
16.85,,,,-2.648297039833252,0.1159842233261068,9.841766261286532,-0.0011205203620221415,-0.0003590428860437101,0.11524737799999661
16.9,,,,-2.639502641446038,0.08956755438398906,9.825735259694504,-0.0009234682893560635,-0.0008373567822119229,0.111541431429278
16.95,,,,-2.6304040512562916,0.06430494671069897,9.810005398250732,-0.0008544605280072298,-0.0009027200615908454,0.1078324394652116
17.0,299.39623973590295,57.59174071002813,0.6711140447160315,-2.6229528194420477,0.039564373811906715,9.799094341034841,-0.0008787592726703333,-0.0006667851344056644,0.10412070653709092
17.05,,,,1.4411157269357247,0.5392022076624019,11.086936392397824,-0.0006048001142451813,-0.028307721595087244,0.10719405946759808
17.1,,,,2.5503203733371747,0.5620461825819371,10.452693409863278,0.0030154918172472884,-0.0430100762386449,0.11093031906344913
17.150000000000002,,,,2.6143986491503695,0.5797636562092509,9.553300825098978,0.007039509841071238,-0.038415492221650534,0.11463707953530963
17.2,,,,2.794939774284805,0.6472740062324929,9.10632365683579,0.00822498785839417,-0.02370194936314976,0.1183280462722093
17.25,,,,2.839549067212759,0.7214634631653252,9.02140548665804,0.006314702355284321,-0.0065295930055498785,0.12203012959388956
17.3,,,,2.7904151903265024,0.7752251497270968,9.203016561448216,0.002822865326380104,0.007116957867084364,0.1257504516906475
17.35,,,,2.6922100513384963,0.8011071090703328,9.50281915723101,-0.00031864312381375283,0.014284551770497646,0.12947740571430377
17.400000000000002,,,,2.5900035772441172,0.8086385877026165,9.789603334678786,-0.0018578828396298675,0.014920388143201752,0.13319682334933364
17.45,,,,2.5153034063859456,0.813413051704267,9.982041597612092,-0.0015920193973979447,0.010933748876096295,0.1369028756914762
17.5,,,,2.4804751088522066,0.8274310021782909,10.054704469775116,-0.00011763313328683883,0.0049972486002377295,0.1405962906946728
17.55,,,,2.481822461644669,0.8551500461655789,10.02614330679868,0.0016817039008632235,-0.000488592882123771,0.14427949543093052
17.6,,,,2.5062433634124135,0.8944995567476909,9.938458223430532,0.003084042995231498,-0.004019837962276342,0.14795498153965475
17.650000000000002,,,,2.538112567985027,0.9401394139739606,9.837066096381145,0.003749898809958844,-0.005151095133130183,0.15162550450312315
17.7,,,,2.564525887160779,0.9866630869279595,9.756360177100277,0.0037142671065461107,-0.004293554053600613,0.15529358489283654
17.75,,,,2.5781617266597627,1.0305769311934079,9.713367810367474,0.003241655154283467,-0.0023230605565501897,0.15896039868291068
17.8,,,,2.5777255593930106,1.0708366407852936,9.708522291780353,0.002651991706239549,-0.00017338692907489794,0.16262533896961698
17.85,,,,2.566510650839742,1.1083096396314405,9.730949521475166,0.0021922939742056034,0.001460516702824968,0.16628662298010427
17.900000000000002,,,,2.550009092375469,1.1447707507768723,9.765278063546313,0.001981482290919801,0.0022556653164453487,0.16994228952666415
17.95,,,,2.5335728908695154,1.1819734119780398,9.797547627262585,0.002018363350973747,0.0022418055756842094,0.17359088509060855
18.0,295.3910859011988,58.711260247751035,0.6826388810881244,2.5208378858125156,1.2210922368190464,9.818827644476059,0.002225168918304118,0.001682692692353846,0.1772316538933176
18.05,,,,2.5131641093111385,1.262572374230511,9.82623731285079,0.0024987575621494822,0.0009240988062190706,0.18086441579353207
18.1,,,,2.5099416974916173,1.306263013708934,9.821887128759814,0.00275076582680553,0.00026437427562216105,0.1844893441102744
18.150000000000002,,,,2.509392055174272,1.3516750081343454,9.810694487157576,0.0029290120397662766,-0.00012054356952483054,0.18810674250989856
18.2,,,,2.492217501686062,1.4057926205258564,9.791386708974755,0.0030119655219933276,-4.827515843110989e-05,0.19190723896267234
18.25,,,,0.6875743704544484,1.3166552592567398,9.204613106535069,0.002979578765145782,0.012828500882052367,0.19466359440954514
18.3,,,,-0.08457557873194052,1.1986274700714714,9.42034782652938,0.0009473152268412235,0.021526082791805387,0.19434303057919855
18.35,,,,-0.10933607555160489,1.2216020771752016,9.89187811785207,-0.0017331875538255338,0.020188821380898635,0.19432925932347442
18.400000000000002,,,,-0.20520478473783152,1.2017015544289669,10.135173197644532,-0.0029329077389886574,0.013348655560264244,0.19433635595048204
18.45,,,,-0.23332604553524777,1.1750830289283403,10.194308347226658,-0.0023041537465185026,0.004835700585080453,0.19434886296098539
18.5,,,,-0.21388325481433085,1.1580434876072763,10.113638708487215,-0.000577454294177264,-0.0022330242623792547,0.19435516384646098
18.55,,,,-0.1690834008323886,1.1562277665050273,9.967088271042273,0.0011814898385089608,-0.00620216427459299,0.19435159350438172
18.6,,,,-0.12024641216118966,1.1659643254492473,9.822366914395026,0.0022093847275902424,-0.006888377221147893,0.19434086848274884
18.650000000000002,,,,-0.08311347456667878,1.1795510974461538,9.722427359779088,0.0022963986369072147,-0.005145550521785879,0.1943292815665992
18.7,,,,-0.06495635975726802,1.1901967099522932,9.681727527347828,0.0016893104128713865,-0.0022731082951544268,0.19432215035251565
18.75,,,,-0.06515263221865049,1.1946411725222845,9.692153729089346,0.0008303060580250446,0.0005116082234938705,0.19432110453495538
18.8,,,,-0.0778180615991466,1.193244931480682,9.733352126570985,0.00011079957487257101,0.0024057891814210338,0.19432451557611452
18.85,,,,-0.0952068828200174,1.188504103403542,9.782881305501475,-0.0002617845917880672,0.0031259225206558207,0.1943295366168634
18.900000000000002,,,,-0.11062118131072979,1.1832646340243782,9.823407812029952,-0.00027507358700447695,0.002827208507879733,0.19433381296396188
18.95,,,,-0.12008112052134734,1.1795133440681826,9.845984722315963,-4.5398854158658776e-05,0.0019193980591217666,0.19433615367465631
19.0,289.49132049893495,59.367264279920825,0.676616163941069,-0.12264286363546206,1.1779909325521996,9.8498431841344,0.00026959522405231004,0.0008652226658021679,0.19433644812968384
19.05,,,,1.9096701093953288,1.43742812049619,10.483358705055213,0.0008445075790458896,-0.013959999458346547,0.19769552089750944
19.1,,,,2.4676331199576955,1.4773481293947284,10.145527996625859,0.0033311011858862677,-0.021886416024014865,0.20135872529989873
19.150000000000002,,,,2.0225687695364067,1.5158703451061986,9.497285229763671,0.005824962457032587,-0.01585056857206535,0.20548435763415301
19.2,,,,0.1080007496614504,1.3086242136998063,8.794787232972594,0.005954849524030315,0.005948094714930412,0.20531165140756022
19.25,,,,0.04828351874461634,1.3691052501307839,9.264123621049203,0.0022705544223030998,0.018359724562714102,0.20522272157209537
19.3,,,,-0.06591528095650662,1.3799468562362358,9.719002765718649,-0.0017463398753196193,0.021130375032419012,0.20522252136538066
19.35,,,,-0.18149937509325997,1.3537448537604841,10.031199459437351,-0.0038143833436265137,0.016830055228223027,0.20524546060555812
19.400000000000002,,,,-0.23590033004657124,1.3186488617722574,10.167467008405687,-0.0034735196268826816,0.009032578525712372,0.20526880964968253
19.45,,,,-0.23866231005719354,1.294544784644546,10.146743823590509,-0.0015720405819003767,0.0012160204830621076,0.20528158604807836
19.5,,,,-0.20583660793675534,1.288629631108355,10.030699411966177,0.0006089764425994389,-0.004282043402945286,0.2052804714770528
19.55,,,,-0.15864690840386111,1.2973327438747024,9.887224525953492,0.0020953899788688866,-0.006571581514443282,0.20526874792709765
19.6,,,,-0.11552119733972642,1.312181082642475,9.768364775983084,0.0025299221722080616,-0.005999194617625934,0.2052538757633722
19.650000000000002,,,,-0.08785834039135845,1.32525683594705,9.700796057139375,0.002094694100328288,-0.003647040155581726,0.20524292021542545
19.7,,,,-0.07897980055443332,1.3322188949301694,9.687038290268688,0.0012395534520271202,-0.0007795355068860452,0.20523904329861647
19.75,,,,-0.08562240792333242,1.3326668938181356,9.71311909404558,0.0004093001924798138,0.00158644008343718,0.20524127057175026
19.8,,,,-0.10092012836795046,1.3287728003464285,9.758211101386706,-0.00011960837328080036,0.0029032692104711435,0.20524654188577904
19.85,,,,-0.11757418495532491,1.3234521123368448,9.802892788527165,-0.0002745973505696031,0.0031072381778988727,0.20525187225036157
19.900000000000002,,,,-0.13017788918109185,1.3190093065411927,9.83423851880593,-0.0001349127512263134,0.002486113169584077,0.2052554486085374
19.95,,,,-0.13623785546996425,1.3165804018230405,9.847396136420407,0.00015226329617449983,0.001483913614668249,0.20525674045293418
20.0,283.2082517811368,58.81507354794382,0.6766177732618146,-0.13599651217253014,1.3162207374338948,9.844362659888988,0.0004451051214060265,0.0005198836651024122,0.2052561390416506
20.05,,,,2.02739951862536,-0.5339037565531489,10.56488563784197,-0.018962979144285373,-0.016163582209280908,0.17881440194821926
20.1,,,,2.62642072172745,-0.4953624922615619,10.114480322064749,-0.01644377943190602,-0.023604377035897586,0.15833670636669414
20.150000000000002,,,,2.6442030468774402,-0.05379200868110963,9.59945475482435,-0.0025068140837448934,-0.019821431755724355,0.14701967396268364
20.2,,,,2.7246712016963808,0.31856546301280386,9.394339643620226,0.008841224612857619,-0.011186865358125105,0.14056261076812349
20.25,,,,2.7303349376547708,0.6550402734398686,9.393635121677937,0.012494795316578797,-0.002131088535525833,0.13724370632866575
20.3,,,,2.6928302331281295,0.902515070814365,9.515257895560001,0.009816481045534885,0.004481574868308464,0.1359273793789146
20.35,,,,2.6380750891173412,1.0482663875802443,9.673530201729953,0.0047674974862823155,0.0075967199952317295,0.1358822734555366
20.400000000000002,,,,2.587159054314531,1.115118371355251,9.808572175641629,0.0007117043920785991,0.007544181654635421,0.1366174341994266
20.45,,,,2.552496885885112,1.1410734060399956,9.891391469330733,-0.000933896453745843,0.0054215559005124135,0.1378103805404952
20.5,,,,2.537569989397575,1.1585292259812798,9.918209567684224,-0.0004780042148243846,0.0025240184770324767,0.1392600750845654
20.55,,,,2.5393626190599337,1.1846964300732872,9.901297658872302,0.0009674212785052527,-6.841605529213108e-05,0.14084993104062665
20.6,,,,2.5514034224125504,1.2226593365724394,9.85998468919362,0.0023470093173911313,-0.0017092708913295515,0.14251841821007782
20.650000000000002,,,,2.3070157428243006,1.0994853481988116,9.716218086312209,0.0033345980862074308,-0.00012217478427388137,0.14079879437286702
20.7,,,,0.9194477370931744,0.8621623039277286,9.312530994275852,0.0024949364977954157,0.010473143865355914,0.13457044480606287
20.75,,,,0.015073661413538879,1.1620566283453493,9.404305943863433,-5.390188209235562e-05,0.01954383240868071,0.13524668387528543
20.8,,,,-0.03610534297096571,1.1297890122634042,9.8466637264814,-0.0023260801650335076,0.019242889999079638,0.13513330383756103
20.85,,,,-0.12157326441026808,1.1099995567278167,10.098259639024656,-0.0030635835230290055,0.013279458333237527,0.13506072153764595
20.900000000000002,,,,-0.15572027618997294,1.0877585016123716,10.171494879909176,-0.002196222780404899,0.005331311438234484,0.13500790821486164
20.95,,,,-0.14201068130023298,1.0754838685398953,10.107850205567312,-0.0004970867229504105,-0.001568827064411667,0.13496396413801065
21.0,275.9159151184589,57.20742101977082,0.6756293780593239,-0.10195000846213902,1.0763227429509747,9.97413061778807,0.0010998657251803522,-0.005682984714905299,0.13492155553657087
21.05,,,,-2.090964960445575,0.9406723663233055,9.186595005552986,0.002694927471846411,0.007408763662695694,0.13314640152875856
21.1,,,,-2.6131834982706796,0.9477886068726953,9.407435236043918,0.0009126510046297356,0.016362660846805387,0.13123569007697022
21.150000000000002,,,,-2.6297842774095015,0.9389191026103157,9.81539953523498,-0.0021387418781405043,0.0167870246090763,0.1293837104505882
21.2,,,,-2.718069918290941,0.8933436167631883,10.043801805634365,-0.004033057073365657,0.012107141829070843,0.1275684627033464
21.25,,,,-2.7491680656245525,0.8356613367394159,10.12013104958546,-0.004066249114775295,0.0053732992107073645,0.12576080690752198
21.3,,,,-2.739800639826702,0.7844292346884721,10.072612540248203,-0.0027605186322756416,-0.0007095473117655652,0.12394304167146714
21.35,,,,-2.706142631774019,0.7478240934431495,9.960526484949435,-0.0011300235861873074,-0.004536995813817973,0.12210821311977428
21.400000000000002,,,,-2.665549378178948,0.7240277715295553,9.84121749057168,5.16978504528116e-07,-0.005708526100072402,0.12025882205735275
21.45,,,,-2.631780171813795,0.7061430988261042,9.75327922515618,0.0003105609600063786,-0.004741254644600457,0.11840215444080295
21.5,,,,-2.612138021504332,0.6873251458348718,9.712045136128209,-5.856337701203846e-05,-0.0026155882316632904,0.11654465368503537
21.55,,,,-2.6074710695331462,0.6637941154687833,9.71356647934589,-0.0007343855224479553,-0.0003371024453995167,0.1146887316923461
21.6,,,,-2.6139531543995025,0.6352968167678629,9.742722873595927,-0.0013530492385083537,0.0013658863618368237,0.11283307105660303
21.650000000000002,,,,-2.625679557026796,0.6038552602191328,9.781564197244778,-0.001701508127926267,0.0021671358048581126,0.1109748022752627
21.7,,,,-2.6370726024522657,0.5720561935301768,9.815463137003833,-0.0017429623793946216,0.0021107589718287853,0.10911146959920097
21.75,,,,-2.6444306065263676,0.541812515777296,9.836168711483136,-0.0015635987512790902,0.0014814097192318268,0.10724187371308873
21.8,,,,-2.6464263916904365,0.513912628007445,9.842010907204006,-0.0012944593380610477,0.0006445935668740147,0.10536599304139105
21.85,,,,-2.6437464110459827,0.4881917075122562,9.836178614755358,-0.0010485925642871646,-8.700799470702357e-05,0.10348451667233077
21.900000000000002,,,,-2.6382536837979758,0.46397836759842265,9.824196995838422,-0.0008899566965685568,-0.0005299550909306822,0.10159836098030085
21.95,,,,-2.6320693596169074,0.44052609077923083,9.811573658181715,-0.000831409344308155,-0.0006443202549939966,0.09970832613617486
22.0,269.5644275976942,55.00029668554029,0.6710874134463718,-2.626864465395783,0.41728484395164983,9.80221908318908,-0.0008500244569211307,-0.000500796940663128,0.09781492943939764
22.05,,,,-2.6235033143167836,0.3939952274742964,9.797835238605902,-0.0009074745612616973,-0.0002250461338360455,0.0959183947986385
22.1,,,,-2.6220361434689923,0.3706551867837062,9.798133031107033,-0.0009671324230151008,5.704763173700792e-05,0.09401874249054522
22.150000000000002,,,,-2.6219369372573382,0.34742492736881375,9.801551109939062,-0.0010042281990523994,0.00025712753983362903,0.09211591060428811
22.2,,,,-2.622440384742894,0.3245227507210304,9.806111691872069,-0.001008924771971545,0.00033911083966039275,0.09020985398796169
22.25,,,,-2.62284611134988,0.3021433042285588,9.81012582732753,-0.0009841131133452303,0.00031367755528488713,0.08830059629088928
22.3,,,,-2.622708622040853,0.2804109860418519,9.812593700983042,-0.0009403889195699921,0.0002204658412739051,0.08638823772177497
22.35,,,,-2.621891376613077,0.2593680973483449,9.813280461932923,-0.0008905079105537196,0.00010714302897531394,0.08447293507520941
22.400000000000002,,,,-2.620511267394499,0.23898938862376304,9.812546616042487,-0.0008449941760152449,1.2600202300797074e-05,0.08255487200454407
22.45,,,,-2.6188245003749304,0.21921094758370768,9.811057832410818,-0.0008097584995084258,-4.197784129962861e-05,0.08063423246757681
22.5,,,,-2.6171063949797015,0.19996125922637242,9.80949532569297,-0.000785788463749016,-5.39460340689007e-05,0.0787111838670859
22.55,,,,-2.615562961443534,0.1811850713410074,9.808350796778983,-0.0007703773916623194,-3.421060096820092e-05,0.07678587114213307
22.6,,,,-2.614290794766868,0.1628552680568014,9.807839884174344,-0.0007590722437620503,2.7031303459132665e-07,0.07485841949550522
22.650000000000002,,,,-2.6132822566487284,0.14497275378199898,9.807923327676965,-0.0007475479221501076,3.346480078025531e-05,0.07292894170786997
22.7,,,,-2.612460313779718,0.1275579188522946,9.808396868454198,-0.0007328697784212993,5.4792550604442194e-05,0.07099754598331773
22.75,,,,-2.611723365069463,0.11063878361168793,9.809002521801828,-0.0007139500712563282,6.06028379141754e-05,0.06906434155131559
22.8,,,,-2.6109834945313235,0.09424043917368635,9.809521838699293,-0.0006913065987825272,5.31100979783914e-05,0.06712944106110678
22.85,,,,-2.6101886995164154,0.07837861417914099,9.80982895520624,-0.0006664108395760167,3.78982785351407e-05,0.06519296023283924
22.900000000000002,,,,-2.6093273992664936,0.0630580623285783,9.809899842712534,-0.0006409496262012172,2.118952103019765e-05,0.06325501598105768
22.95,,,,-2.6084193832570604,0.04827476583002043,9.809788293502889,-0.0006162505295886469,7.771759701345442e-06,0.061315724231394426
23.0,265.82218123737545,53.25758695620455,0.6710821516355332,-2.6075001421959594,0.03402009287961088,9.809585934962918,-0.0005929937875934442,3.4598446475758216e-09,0.059375198253132644
23.05,,,,1.4643380046607122,0.317899718160623,11.110082919201869,-0.002211800803262728,-0.028198512232229186,0.06097765555302439
23.1,,,,2.580588846077468,0.29283389360861267,10.467307091956869,0.0006765100077057944,-0.04329261011537434,0.0629254129178507
23.150000000000002,,,,2.649503672075059,0.2852582516347214,9.55729005723947,0.004967995282364982,-0.038851401541926255,0.06486010264654543
23.2,,,,2.7887016812454966,0.3028908098900756,9.085756032101488,0.0068581548673457,-0.023732857799118382,0.0661200681206277
23.25,,,,1.7381123493015498,-0.14587010837500983,8.667137201363985,0.005811479638633134,0.0011924478890174518,0.057063030795753186
23.3,,,,0.44199950801515026,0.2892897575619503,8.737314936412929,0.001273051336434924,0.02537185958843083,0.05762589106759615
23.35,,,,0.12673409243979822,0.2837413080637238,9.454022302068708,-0.0036814227952947963,0.034386694528686014,0.0578794298157916
23.400000000000002,,,,-0.04325490882599209,0.24130797583609978,10.061236486040874,-0.006344981098540022,0.029859410358765676,0.057918132218756656
23.45,,,,-0.16438699152582487,0.19309608088074035,10.370822367550588,-0.005801818205038951,0.017812604949056603,0.05792249359190343
23.5,,,,-0.1895558598374111,0.1598682983735565,10.403976611026406,-0.0030239542795761133,0.00428202158196947,0.05791489507310151
23.55,,,,-0.1471451238348746,0.1518794416979387,10.245019205381743,0.0002637230416654247,-0.0061880037368824735,0.057905420489738825
23.6,,,,-0.07164149539764807,0.16494070186269325,10.008414178070254,0.0026158446098838678,-0.011444052662022107,0.05789432914831361
23.650000000000002,,,,0.00440993941799506,0.1875352443235457,9.79193924844885,0.0034061699988330845,-0.011584069500898473,0.057883342405523265
23.7,,,,0.05851433021828868,0.2080539105390514,9.653402498021519,0.002816786277474506,-0.008198903306318894,0.05787627221928502
23.75,,,,0.08149398803666949,0.21948973022161,9.607627914717254,0.0014926127650345732,-0.0034208432856777417,0.05787509428994203
23.8,,,,0.07620934236400277,0.22064243284545043,9.637080917500805,0.00013406387328222094,0.0008807943958209626,0.0578783397971097
23.85,,,,0.05311987082888797,0.21456094680044038,9.708094060034078,-0.0007831100045961851,0.003570046690642009,0.05788291452515652
23.900000000000002,,,,0.024786079278872608,0.20584872444274982,9.786076432196746,-0.001099649516140064,0.004349863728667975,0.05788643599951331
23.95,,,,0.001383297215186978,0.19837842156399182,9.845812210392918,-0.0009147149496762791,0.003586741271973148,0.05788804897392281
24.0,262.9023983049268,51.64925903124513,0.6766112378734432,-0.011625225910580253,0.1941825080270128,9.875654549243631,-0.00045839312838094517,0.0019935853314016682,0.057887972927272775
24.05,,,,2.0216740786142426,0.34212620904304736,10.52454267588688,-0.0007834704617252277,-0.01377864192467978,0.05965367148173046
24.1,,,,2.5859764938080194,0.338598123389521,10.181132831558497,0.0010242052828861922,-0.022559468066328067,0.06158440036964028
24.150000000000002,,,,2.630999350952556,0.34519639210270836,9.696964422655624,0.0033369852142681408,-0.020906510231768996,0.06350180557094572
24.2,,,,2.732182860153019,0.38078209034934835,9.444468762165531,0.004252174538175676,-0.013474429029355396,0.06541112586773647
24.25,,,,2.7613883610829366,0.42182146183653796,9.385233778598701,0.003474335364404373,-0.004355003940654791,0.06732456505622347
24.3,,,,2.7396770213829886,0.4530377453385778,9.47226345531582,0.0017390356836130736,0.003146096470739601,0.06924637381160197
24.35,,,,2.690088271267537,0.469535252213693,9.627931801033325,7.83096322782123e-05,0.007300154427396593,0.07117240702334753
24.400000000000002,,,,2.6363951351716115,0.47571777117903724,9.781580446977186,-0.000797944268554074,0.007944927656694053,0.07309582831447814
24.45,,,,2.5958919547266883,0.4796762580277732,9.888008988929966,-0.0007329367895077816,0.006016506385079502,0.07501220656759476
24.5,,,,2.576118031507233,0.4880014195602135,9.931591239432793,-1.0650333009984024e-05,0.0029161822955578536,0.07692034475520625
24.55,,,,2.575957453136874,0.5034122166121602,9.920527780183328,0.0009120182801091817,-5.3726032439588024e-05,0.07882109161921104
24.6,,,,2.5888711565822864,0.5250578576519154,9.876280046308986,0.001649124323500483,-0.0020439682669783597,0.08071631114375433
24.650000000000002,,,,2.606566785455219,0.5501865441691167,9.822850570788235,0.002011178197007159,-0.0027664249987412078,0.08260817577768109
24.7,,,,2.621955890410334,0.5759050598728424,9.778977688877857,0.002007154184869806,-0.0024023964552090443,0.08449843234410279
24.75,,,,2.6308413896560277,0.6003027848226979,9.754456258679232,0.00177055087855125,-0.0014008784186653623,0.08638781040455486
24.8,,,,2.6322604471763666,0.6227750353217668,9.75023829950615,0.0014675382593532093,-0.00026069640416078187,0.08827592680512385
24.85,,,,2.627776791105978,0.6437479722614096,9.761032025576124,0.0012281730524672802,0.0006340778009229804,0.09016168689636989
24.900000000000002,,,,2.620234000290726,0.6641452525667977,9.778847826942084,0.0011161443929796867,0.001093195039072559,0.09204385468748012
24.95,,,,2.6125035414715705,0.6848918575453216,9.796181969907012,0.0011322151849832908,0.0011167870158111993,0.09392147440135849
25.0,258.9455646748805,49.12516937735498,0.682739790392222,2.606610630808334,0.7066133678512644,9.808048737214014,0.0012368032059898717,0.0008359917366285851,0.09579403338079696
25.05,,,,-1.46672207093567,0.43477985658655516,8.519415773989747,0.0028957892945055733,0.028579077416254543,0.0941589553129978
25.1,,,,-2.5880065087671262,0.4575264400798307,9.164983365954859,-0.0002480861704764264,0.0432762293231835,0.09221937788396567
25.150000000000002,,,,-2.6620993917500773,0.45791561258682295,10.068881431620976,-0.004780079888016887,0.038644211850860456,0.09032886509482033
25.2,,,,-2.839269221010625,0.398920648331671,10.51037281560531,-0.006766233686859576,0.023889631967251385,0.08845515126337294
25.25,,,,-2.877013708455015,0.32892307243461066,10.583078460735674,-0.005483012492694266,0.006708029054872915,0.08658355413894173
25.3,,,,-2.8261439438471103,0.27812920038550204,10.388816603954986,-0.0022777888617622585,-0.006897434355606519,0.08470753176727315
25.35,,,,-2.73152100750094,0.25602612299269,10.082675733936625,0.000871955472923422,-0.013996136159839646,0.08281933646852407
25.400000000000002,,,,-2.634335974493613,0.25492588704579605,9.798569859569287,0.0025816923782638057,-0.014579969807446318,0.0809186309814512
25.45,,,,-2.563532781186221,0.26001311291373613,9.61533913727767,0.0025274901255145895,-0.010587917491292934,0.07901325011266176
25.5,,,,-2.5313602631338807,0.25863142914194664,9.553155417422769,0.0012401520020886739,-0.004688620664388296,0.07711095261036315
25.55,,,,-2.5348839598518587,0.24521346220814327,9.588835360239468,-0.0004114992427654109,0.0007458632402965794,0.07521346428894042
25.6,,,,-2.561402041328122,0.22127331767033792,9.678289536129341,-0.0016956621731183405,0.004242771669265825,0.0733176157473919
25.650000000000002,,,,-2.5953165317570788,0.19224698848696778,9.776817264748022,-0.0022613602869181438,0.0053740342289439105,0.07141950771917308
25.7,,,,-2.6238067857065115,0.1638187296444659,9.852301999248153,-0.0021389662805339194,0.004550012300512439,0.06951698395786844
25.75,,,,-2.639807163123495,0.13958415085648604,9.890193500931957,-0.001592697160258466,0.0026328303477386305,0.06760965289519946
25.8,,,,-2.642243119330603,0.12049437758710457,9.891775206555936,-0.0009412935143483164,0.0005384918539255218,0.06569802004536382
25.85,,,,-2.6344073419185463,0.10553683755911852,9.868499779605102,-0.0004271605089468432,-0.0010521401204818988,0.0637828762963222
25.900000000000002,,,,-2.621596263158918,0.09284830658920648,9.835307454326548,-0.0001621716596543058,-0.0018222259130050943,0.061865031223412095
25.95,,,,-2.6089258773840664,0.08066861831960856,9.805155523903771,-0.00013846730445905663,-0.0017993744473339224,0.05994514589658966
26.0,255.18519888361777,46.30167874387707,0.6711697197601653,-2.599882792228523,0.06787680161343211,9.785913478013132,-0.0002746198415857408,-0.0012396183118653739,0.058023606127665515
26.05,,,,-2.59579578920158,0.054108784806442385,9.779732067258648,-0.00046793723673837676,-0.0004794849750470256,0.05610050998126937
26.1,,,,-2.5961057800977185,0.039590416700510514,9.784260446733832,-0.0006338061092580727,0.00018981014098422817,0.05417577825920683
26.150000000000002,,,,-2.5991170790179896,0.024852058343538,9.794767506335095,-0.0007249338736889514,0.0005953819552411232,0.052249301860028685
26.2,,,,-2.6028597554297623,0.010458828013747644,9.806272751455465,-0.00073240163298391,0.0006975128911173154,0.05032103824001269
26.25,,,,-2.6057676548993003,-0.0031689085950192142,9.815074711230661,-0.0006750627473698385,0.0005599775797513384,0.0483910329442417
26.3,,,,-2.607023102992752,-0.015827224641738084,9.819428388117291,-0.0005846166745409715,0.0002985989594703314,0.046459394321193004
26.35,,,,-1.0927790842528338,-0.0029807127274858324,10.328966808765346,-0.0012555128794384564,-0.010977696685823195,0.04390608026311291
26.400000000000002,,,,-0.0006191055039571642,0.11721291110962741,10.26484646582453,-0.00042069025741064866,-0.02118384314294031,0.04418887112220939
26.45,,,,0.005977532081558629,0.08587468972694867,9.76246492500795,0.0017391141258564903,-0.020623229474014335,0.044201355314994736
26.5,,,,0.10745588212768994,0.0993837864094781,9.493779753197574,0.0029528553813723667,-0.013988175517117986,0.04420255780803056
26.55,,,,0.1444016614566217,0.12268072404920888,9.415693911336486,0.0025616482438637995,-0.0052702744104916365,0.044200612048860353
26.6,,,,0.12924806615815126,0.13912343622756315,9.486192647075626,0.0010608134556322538,0.002214946456484093,0.04420266888927686
26.650000000000002,,,,0.08490510569715652,0.1414248914626031,9.631634120914299,-0.0005806532774716114,0.00661489764571539,0.04420773458836101
26.7,,,,0.03420269451173595,0.1322220821687508,9.78146349991459,-0.0015869164103541691,0.007612522237297505,0.04421228143608634
26.75,,,,-0.005421300377766319,0.11902015282129291,9.888988481233714,-0.0016950272033573466,0.006008167775490058,0.04421445354155787
26.8,,,,-0.02573209294236397,0.10870218373146324,9.936505155664252,-0.0011090799709783691,0.003117304496091904,0.044214432372888114
26.85,,,,-0.026969814365811407,0.10458557674940555,9.930252229136197,-0.0002563784029640944,0.00021491460484260777,0.0442130820406895
26.900000000000002,,,,-0.014906479069011897,0.10629830013376715,9.890213760354605,0.00046594629814635175,-0.0018282603795705395,0.04421119050682558
26.95,,,,0.0026493435381205223,0.11129584489695975,9.83953754426599,0.0008394475104682404,-0.0026741498901360853,0.04420942931725142
27.0,253.12125399525698,44.53424847439776,0.6768788560306018,0.018757015395650663,0.11666926104966399,9.796715265644444,0.0008463727647068195,-0.0024482843621758945,0.04420833141797974
27.05,,,,2.0642898836420964,0.2693087939470535,10.419597774171011,-0.00023087681948868023,-0.015643163097037296,0.04597701345605996
27.1,,,,2.625812745745968,0.2630606318464697,10.08957192854335,0.0008206642939063543,-0.022100837568497414,0.04791307651628497
27.150000000000002,,,,2.6588672202388506,0.263115605805657,9.641451965832012,0.0026297104851747263,-0.018996599977896458,0.04984001845431714
27.2,,,,2.7450251113399586,0.29088885500835493,9.429876763708059,0.00336972308049631,-0.011147894746905683,0.05176227671746647
27.25,,,,2.761551253394023,0.32455463905402093,9.402943748731797,0.0026869005742717104,-0.0024480797195435204,0.05368861881384672
27.3,,,,2.732751953559377,0.3499656069077289,9.506955107980698,0.0011942491971493117,0.004184110415353407,0.05562101687587918
27.35,,,,2.6822075465190127,0.3625002363313247,9.664116852937596,-0.0002010431233475993,0.0074209221302766895,0.057555429183240345
27.400000000000002,,,,2.632117203257738,0.3661693931493582,9.808144234322564,-0.0008770173285188457,0.007390806112067168,0.059486638653993805
27.45,,,,2.5972696070505465,0.36835223733389943,9.900106239505284,-0.0007148402450761616,0.005157288218031616,0.06141188622347179
27.5,,,,2.582879882440185,0.374949611301342,9.930151593488977,6.916194342482197e-06,0.002098060565081276,0.06333092791419008
27.55,,,,2.5863469988826475,0.38821594499424406,9.910217950067883,0.0008634929112299385,-0.0006052874953470558,0.06524480928912306
27.6,,,,2.6006485900072174,0.4071140753767095,9.862975288426645,0.0015096089312692195,-0.002254754756489453,0.06715506713489991
27.650000000000002,,,,2.6178252964945408,0.4289396314421809,9.811513115684287,0.001790622182745334,-0.0026887689216863104,0.06906326870774976
27.7,,,,2.6315834281824904,0.4509928488825524,9.772455041159038,0.0017364763874885118,-0.0021598995861786107,0.07097051753999138
27.75,,,,2.6386075361573806,0.47160564465314436,9.753280407618734,0.0014860774132203695,-0.001128829060549522,0.07287707964659576
27.8,,,,2.6386146780058506,0.49038218578591236,9.753179644465906,0.001198638968791611,-6.155461947722519e-05,0.07478240957737621
27.85,,,,2.633502646776377,0.5078726915440396,9.76601035034205,0.0009906566375056914,0.0007113771093630382,0.07668553239303261
27.900000000000002,,,,2.6261070638255486,0.5250278082964402,9.783818134719358,0.0009116163974798915,0.001051309075214477,0.078585492656988
27.95,,,,2.6190575303645165,0.5427226660805231,9.79973782857712,0.0009518589051743566,0.0009930526452848357,0.08048163517512578
28.0,250.30638701804443,41.851327184255105,0.6827314298163911,2.614050460596684,0.561493529180013,9.809648812328867,0.0010672208797446675,0.0006803170632115678,0.08237366908077144
28.05,,,,-1.458461352292781,0.2856930666810429,8.519187037595694,0.002760668439559333,0.028436581251032336,0.08074801327375364
28.1,,,,-2.579420728432759,0.30934843733030576,9.163560035804357,-0.0002581800714937574,0.04317675501158208,0.07881041856736556
28.150000000000002,,,,-2.6535154785075648,0.31202788334061643,10.067383218795804,-0.0046735208147615495,0.03859259676259161,0.07690801916879797
28.2,,,,-2.830923617061206,0.25619214595339246,10.50938163840219,-0.006587197060334645,0.023874982634052883,0.07501319706188182
28.25,,,,-2.869047735909233,0.1900880846410061,10.58273808406875,-0.005275732294299568,0.00671289222564283,0.07311894509877821
28.3,,,,-2.8185948187756082,0.1434079528462155,10.38900917385901,-0.002073872097119118,-0.006889855120551416,0.07122358937039158
28.35,,,,-2.7243432167157446,0.1252535478142498,10.083180485817767,0.0010553795069436355,-0.013997510627860107,0.0693204602743417
28.400000000000002,,,,-2.6274337929920963,0.1277427028587429,9.799170167332107,0.0027394505884479796,-0.014595217030252003,0.06740757255226149
28.45,,,,-1.6285257360442822,0.38509144710198423,9.94450830365962,0.0021046000818748566,-0.0177049196647951,0.07013483656748275
28.5,,,,0.04690383440838064,0.28299056342314227,10.123604853672441,0.0014676907101530128,-0.024389098660706213,0.0696808982195877
28.55,,,,0.059959335138944636,0.2823221082406409,9.636532728229781,0.0019488825849546402,-0.020451494631194677,0.06964538753202665
28.6,,,,0.13149629643441554,0.289149629819506,9.409376441396779,0.0020925551798243627,-0.011435373408290744,0.0696436916546356
28.650000000000002,,,,0.14932411281878066,0.30213330560813195,9.388662847103861,0.0013736514482490484,-0.001836921378679006,0.06964794795479122
28.7,,,,0.11437848431042964,0.31040450279778564,9.505475219393391,0.00010637617750249565,0.00524677555423749,0.06965647245536041
28.75,,,,0.05785009215903386,0.30890985877461674,9.677462938207421,-0.001052294032103588,0.008473891426302777,0.0696661780328422
28.8,,,,0.003854832304147921,0.2997483607239303,9.832449753269309,-0.0015917924098990805,0.008113577632960394,0.06967411606222294
28.85,,,,-0.031941992366328775,0.2886974274989922,9.928699163005206,-0.0013944133969767734,0.0054296209682175465,0.06967873880528064
28.900000000000002,,,,-0.04468439646776137,0.280980152767871,9.956721437231051,-0.0006943993497474468,0.001976168544970085,0.06968001339973441
28.95,,,,-0.0380513305608433,0.27889611808205345,9.930931165314915,0.00012323663098317495,-0.0009617235647099892,0.0696786877378817
29.0,247.38076730579635,38.660712215811984,0.676392534704681,-0.020260043716011738,0.28171932948984213,9.877077121344282,0.0007301481656659764,-0.0026653510064215875,0.06967592129461894
29.05,,,,2.035036264229757,0.4353708092006687,10.468490472596395,0.00017302398021251154,-0.01710151167290505,0.07143729958833736
29.1,,,,1.913286564266699,0.4007492090757161,9.84870141655955,0.0020287245400424166,-0.01846294641561053,0.07316671833581742
29.150000000000002,,,,0.09280344576895194,0.28591566030258203,9.013705467238712,0.0038901287809023077,-0.0014529547017111137,0.07304189575329448
29.2,,,,0.16111069891022933,0.34190769102590474,9.326858196032042,0.0023240982845769793,0.009411913964748678,0.07302567465720541
29.25,,,,0.0801221153559505,0.35916663308764446,9.6396638787306,-0.00035438920455080434,0.013768604466235755,0.07302938360912677
29.3,,,,-0.009359678224930768,0.34839360995258134,9.889590577923677,-0.002256472789326547,0.01257877797879312,0.0730398291357465
29.35,,,,-0.061081953876017156,0.32565325713208254,10.028779983298323,-0.002595531246069947,0.008000589484254382,0.07304818592985751
29.400000000000002,,,,-0.07649072790106091,0.30640981434146297,10.052648877767677,-0.0016382231954840335,0.0025209040316672756,0.07305177049400713
29.45,,,,-0.0627519184663069,0.2986461610970264,9.995002146073238,-0.00018676878893447157,-0.00193145398764309,0.07305045800396726
29.5,,,,-0.03350029429406551,0.3020524729502676,9.901620809249561,0.0009962020334029556,-0.004362568459915834,0.07304564853884182
29.55,,,,-0.002333749930611726,0.31149092730152106,9.81262242366291,0.0015165082458834086,-0.004698620141037271,0.07303990239476708
29.6,,,,0.020974219718884506,0.3211122326164997,9.752781961465969,0.0013847242032683099,-0.0035091102612271573,0.0730358021385345
29.650000000000002,,,,0.032026386277602265,0.32709558277889367,9.729792937048993,0.0008644890973801579,-0.001633031813328382,0.07303460196046074
29.7,,,,0.031407401435580455,0.32844387219722876,9.738016879617165,0.0002747427192384451,0.00015355550876185837,0.07303589588754138
29.75,,,,0.02297555269121429,0.32630105258509273,9.764675462725494,-0.00015319608269804085,0.001346214730171213,0.07303835296744543
29.8,,,,0.011704746461379336,0.322680106359341,9.79591277625774,-0.00032867474906732194,0.0017756984983292937,0.07304067374451081
29.85,,,,0.0018543597135093418,0.31936651623785667,9.821110660264388,-0.00028119660890852467,0.0015531092353402703,0.0730421148107851
29.900000000000002,,,,-0.004077537862963953,0.3173606850217827,9.834861714379642,-0.00010455114634372377,0.0009493406583108162,0.07304252411903703
29.95,,,,-0.005545698190828195,0.3168412512812718,9.836826997158486,9.93211788842312e-05,0.00026456700796402777,0.0730421371031197
30.0,244.72480947260485,35.29633335537465,0.6767737392796556,-0.0035076018622651403,0.31743340179061713,9.830201894467649,0.0002568600364139082,-0.00027050822230622343,0.07304134646907208
30.05,,,,2.035575408761576,0.466861832282145,10.467502129259422,-0.0004575832616925625,-0.01462762643755628,0.07480416284917407
30.1,,,,2.597472214606885,0.46515349819301616,10.132889504949768,0.001072194288172383,-0.022170933412619005,0.0767306234911403
30.150000000000002,,,,2.6354004786870977,0.4730315271574006,9.669018874025516,0.003249299528142087,-0.01977633938604703,0.0786383654914512
30.2,,,,2.7281556721731643,0.5100268855026638,9.43856400875663,0.004160859218630363,-0.012166028456768911,0.08053336465521228
30.25,,,,2.7504251758108884,0.5532946697818232,9.396052308283593,0.003471063273913722,-0.0033080884118006524,0.08243043198941763
30.3,,,,2.724895333504845,0.5876667069831136,9.491273055588662,0.00186189906370012,0.0037087754968268887,0.08433580528083925
30.35,,,,2.67478085055879,0.6080578474395263,9.646888774603534,0.00031720168721702653,0.007371713289691761,0.08624618463852053
30.400000000000002,,,,1.3560358852428145,0.6306461213124519,9.358724622801338,0.00026167425604240417,0.01712653822814354,0.08937092755604358
30.45,,,,-0.020632925078538422,0.4680237927604338,9.399586652106292,-0.00026549673454059794,0.02619279064579537,0.08899473088741489
30.5,,,,-0.034261077088410155,0.5006943975521934,9.958241023589892,-0.0019804003354050425,0.02326276761676334,0.0889850586126732
30.55,,,,-0.13362038419226024,0.48696554929123886,10.22958173844749,-0.002720066341559646,0.014214832295677222,0.08898918587452852
30.6,,,,-0.1590474835802224,0.4651271087491002,10.276417222927401,-0.0019707716931324265,0.0038036623491624886,0.0889957317493601
30.650000000000002,,,,-0.12790265401158868,0.4510712314886686,10.162314876341044,-0.0002997598286565681,-0.004369479348344242,0.0889974190241509
30.7,,,,-0.0702006253358276,0.4509169311902713,9.97819277028178,0.0013295328028464723,-0.008555447418889925,0.0889922527966689
30.75,,,,-0.011373410208741837,0.4615514895843501,9.805196322042248,0.002199086311652028,-0.008785915111488206,0.08898276837270204
30.8,,,,0.03074157392932073,0.47545981549092914,9.692200823138322,0.002123725813969592,-0.006269663862255801,0.08897424792311498
30.85,,,,0.04891975340364894,0.4858240009166116,9.652771152621945,0.001376478800189466,-0.0026450108454000735,0.08897074577445978
30.900000000000002,,,,0.045333117628433374,0.48943166554353684,9.673695507066222,0.00042662487096441237,0.000647202680309238,0.08897274917239267
30.95,,,,0.027987919306665623,0.486899287209437,9.728348379251113,-0.0003188388434731839,0.002727186092327973,0.08897795600674378
31.0,241.90812535442154,31.08348604295004,0.6771806777803093,0.006480281692396679,0.4811034864727431,9.78918457669273,-0.0006574177322648279,0.0033571241348446254,0.08898345104054937
31.05,,,,2.0239006951511453,0.6230692997381867,10.483957539980564,-0.0013704817982492232,-0.011276734481543678,0.09074658768445945
31.1,,,,2.571871115733872,0.6189098930268566,10.183133775336303,0.0005428613919306615,-0.02000117269230242,0.09266788940521054
31.150000000000002,,,,2.605028214422404,0.628080009391221,9.7273837493547,0.0032140431821332297,-0.019055126508764005,0.09455995108315102
31.2,,,,2.7007079499218087,0.6693753836003655,9.485229027894812,0.004532413203269608,-0.01264151292173768,0.09643059236380551
31.25,,,,2.730454777229293,0.7188646963010031,9.420935599493248,0.004067640374516386,-0.004447398918535668,0.09830007339585216
31.3,,,,2.7132650460295373,0.7599410550432711,9.493841835473487,0.002497246701002596,0.002471847011415344,0.10017937758078248
31.35,,,,2.669457697797995,0.7864093770376929,9.63328670285768,0.0008576554207433313,0.006456488176683025,0.10206702835050722
31.400000000000002,,,,2.620521877549299,0.8017680508518086,9.77400637122146,-9.875517282497087e-05,0.00726777922896665,0.10395476163241762
31.45,,,,2.582519058482486,0.8137560271397956,9.873558596380025,-0.00015883520363466628,0.005688114375071133,0.105834767212262
31.5,,,,2.56285236304396,0.8290901492537741,9.916451692134679,0.0004442698472164801,0.0029581401073855047,0.1077028936983903
31.55,,,,2.5610366366307153,0.850888714323532,9.90916107534143,0.0012866795050703256,0.00026309381900963046,0.10955870551900636
31.6,,,,2.57148477198884,0.878755541949908,9.87063800017589,0.0019933589457112716,-0.0015996019071926762,0.11140441736789793
31.650000000000002,,,,2.586795772425583,0.9102866635078898,9.822568762108919,0.002366911544917919,-0.0023331050203164345,0.11324345928000884
31.7,,,,2.6004738917625567,0.9427489231303876,9.782193010206479,0.0023981254442318675,-0.002070889491225626,0.11507893591292191
31.75,,,,2.6085349578808197,0.9742082767185283,9.75881802597509,0.002201653668110634,-0.0012015656411715132,0.11691248459896697
31.8,,,,2.609899846779205,1.0039268064486389,9.753757839441974,0.0019305492821307473,-0.0001731449792080708,0.11874398702914087
31.85,,,,2.6058195862149014,1.032184903053405,9.762568643729098,0.0017087994711669882,0.0006590987121530453,0.1205720963297763
31.900000000000002,,,,2.598783102833942,1.0598094825532973,9.77819281300969,0.0015991155773048748,0.0011097708763803675,0.12239510320919776
31.95,,,,2.591387864615051,1.087676451988048,9.793832317733807,0.0016045548541474435,0.0011659401318487575,0.12421162090247029
32.0,238.8138490296887,25.32749702874069,0.6827400929039747,2.5855258738143228,1.1163780588208898,9.804833605378446,0.0016907955429354034,0.0009374432621985593,0.1260208501950513
32.1,,,,-2.609483552658818,0.8760290327643546,9.162765181245549,-0.00019112834005539372,0.04345034062133048,0.12241054674769362
32.15,,,,-2.6837289051936444,0.8722429894339183,10.06703836792163,-0.00500643628883412,0.038824537701812066,0.12055853740124362
32.2,,,,-2.861034884022164,0.8067624566149436,10.508969024859839,-0.00717114046403106,0.024060694944172,0.11875174490819021
32.25,,,,-2.898728032422622,0.7282256648022829,10.582261401689266,-0.005961482884260165,0.006858669435589846,0.11695238291293984
32.35,,,,-2.752504929526917,0.6369451444925809,10.082682218778068,0.0004457154115497787,-0.013891865628951169,0.1133010864043289
32.4,,,,-2.6547986234675274,0.6276661359521246,9.798532959101635,0.002221343254443102,-0.014489710056350049,0.11144225468051124
32.45,,,,-2.583499641646272,0.6255403877698301,9.615023063799727,0.002227038460924127,-0.010503103696768462,0.10957759515410678
32.5,,,,-2.5509096964545437,0.6175867772565586,9.552494458618712,0.0009777682112551854,-0.004602995275989845,0.107719773069161
32.6,,,,-2.5803337919747453,0.56711731276591,9.677281029338284,-0.0019596188018193013,0.004334489580180297,0.10402806373204206
32.65,,,,-2.6139784609648347,0.5309419654101963,9.7758853116562,-0.0025493472506632484,0.005465830002004056,0.1021820894877419
32.7,,,,-2.6421805263185014,0.4949388102802242,9.85155614082942,-0.0024513550353887164,0.004638839960008675,0.10032895697471776
32.75,,,,-2.657859769043342,0.4628747167187635,9.889664814071606,-0.0019223276129850164,0.0027163174731725955,0.09846701665989886
32.8,,,,-2.6599418033375097,0.435890863343245,9.891426338001278,-0.0012787141136804546,0.0006154768622393368,0.09659681577547564
32.85,,,,-2.651728082056518,0.4131026178727841,9.868255016318669,-0.0007645079761644852,-0.000981585837236342,0.09471996516091358
32.9,,,,-2.6385264439441687,0.3926908616370233,9.835088387984964,-0.0004947604037319847,-0.001757144741849683,0.09283827587986856
32.95,,,,-2.625462970323285,0.3728778209845593,9.80490889643761,-0.00046465321017278677,-0.0017384510991123512,0.09095317849576984
33.0,236.34682882062518,19.266646645267393,0.6711605495693322,-2.616030952593722,0.3524992423147537,9.785622910642708,-0.0005949761247401875,-0.0011816930330894161,0.08906543775563217
33.05,,,,-2.611561673550097,0.331149245313203,9.779412954652875,-0.0007844205351392531,-0.00042388763026594676,0.0871751819612216
33.1,,,,-2.611494654692721,0.30902459191533693,9.783944097587177,-0.0009490501446215545,0.00024318474370218872,0.08528215390530168
33.15,,,,-2.6141302171338405,0.286639457013809,9.794483652418515,-0.0010415641682595751,0.0006462283363956263,0.08338600701988307
33.2,,,,-2.6174937606550945,0.26455254209044465,9.806037986799796,-0.0010523588942080535,0.000745384912268898,0.08148650708781371
33.25,,,,-2.6200156284996825,0.24318547633329748,9.8148898767551,-0.000999107776701884,0.0006045374371885022,0.07958360168280648
33.3,,,,-2.6208768602789454,0.22275007287200155,9.81928320170215,-0.000912229690826619,0.0003397495988203504,0.07767739580817314
33.35,,,,-2.620020460559897,0.20326223630184112,9.819323384079837,-0.0008218553552998689,6.811574041910393e-05,0.07576809006678666
33.4,,,,-2.617930043123276,0.18460520609631567,9.816365681267957,-0.0007493389892652523,-0.00012774358479748018,0.07385591956676618
33.45,,,,-2.6153156395714627,0.16660695036393616,9.812227582573945,-0.0007040406062568351,-0.00021374487096663283,0.07194110942174167
33.5,,,,-2.3085482798807084,0.06565961113058606,9.923663359502036,-0.000829896464476811,-0.00267486334312436,0.06792891957926614
33.55,,,,-0.2445270662731978,0.26244894488901477,10.470236891089549,-0.0015161705459808845,-0.01706243518464264,0.06747422154426952
33.6,,,,-0.024800365049993302,0.2538453351519133,10.006378388961698,0.0003025505700523308,-0.021731084310837888,0.06762958611388177
33.65,,,,0.04786011529097347,0.24406078996896077,9.614978012154815,0.002355567422819427,-0.01787224884727236,0.06763510968338997
33.7,,,,0.12259493186317817,0.2642010519723378,9.43830679196778,0.002991210615838167,-0.009862846151942077,0.0676290275673511
33.75,,,,0.13226975251777015,0.28686679797564013,9.436463179411431,0.0020854116779518363,-0.0014572591158818482,0.06762367585047868
33.8,,,,0.10094515093618533,0.29839376185821603,9.55043792376546,0.0004306334129720709,0.004672531903351126,0.06762536153219138
33.85,,,,0.051387453413740986,0.2956950334657002,9.704417421387236,-0.0010076551845733233,0.0074267499773295,0.0676313666749514
33.9,,,,0.004601888703278573,0.28411792816928555,9.837758508598808,-0.0016441006988987463,0.0070752369824035495,0.06763722640689282
33.95,,,,-0.02622959654457688,0.27151191562927607,9.917482521789386,-0.0014280941070972674,0.004724713494200502,0.06764048859573048
34.0,235.10754746076262,15.167284638532557,0.676244437450064,-0.037124846399460606,0.2635385809159589,9.938091945865224,-0.000688231237248145,0.0017188250425290783,0.06764077978496176
34.05,,,,-2.0666375459398716,0.11339116903995941,9.264072389438983,0.0009403189344941144,0.013252947400267563,0.06587390119178287
34.1,,,,-2.611074705545456,0.12057384376379497,9.536978577211839,4.2021455827303484e-05,0.01931728854948509,0.06394084272964236
34.15,,,,-2.6298315576475617,0.12048423754166533,9.941334257995058,-0.0019077577215181568,0.0168076718728877,0.062014824146556326
34.2,,,,-2.7062365449301513,0.09145064324495553,10.129671329376107,-0.0029285507747413204,0.01004567878773677,0.06009080254172325
34.25,,,,-2.720074893452804,0.0556913926425884,10.15349882401048,-0.0025178592222965448,0.0024414752685542377,0.05816627030174683
34.300000000000004,,,,-2.6952117449635873,0.02780849447562178,10.060993509824597,-0.0011904199019453568,-0.0034177527840113346,0.05624076947762591
34.35,,,,-2.6520035203799615,0.013019088984476568,9.92255479337094,0.00017777608132695156,-0.006337482505431555,0.05431281864966206
34.4,,,,-2.6089293355213963,0.008143704435879239,9.797334938475231,0.0009411943427835621,-0.006403429429835645,0.05238194766423716
34.45,,,,-2.5784976517456624,0.006416565138467307,9.718967532293956,0.0009297325637978075,-0.004524752587869166,0.05044920266231903
34.5,,,,-2.5654466683789736,0.0020546802309633514,9.694816359496231,0.00036975728288310823,-0.0018917771750878464,0.04851578154769313
34.550000000000004,,,,-2.5678744984386532,-0.007415287219098005,9.713346004782865,-0.00035040498936184735,0.0004674437225221432,0.04658198104236735
34.6,,,,-2.579901175935684,-0.021235296522710972,9.754362634481938,-0.0009012340070849235,0.001937097139749888,0.044647390879356263
34.65,,,,-2.5946820765664027,-0.0369128066651582,9.798029727162683,-0.0011264620409971134,0.0023621826651830107,0.04271158079382844
34.7,,,,-2.6067546932486634,-0.05189381737705751,9.830535073831351,-0.0010438257303615345,0.0019469858921827895,0.04077443704238372
34.75,,,,-2.591485025037559,-0.07572185590812414,9.854533960677525,-0.0007837848273853057,0.0008980414013852118,0.03857279603949827
34.800000000000004,,,,-1.0308453504213224,-0.16399632880309803,10.363302659457968,-0.0011910852584523246,-0.011215327467494965,0.03350543233694207
34.85,,,,-0.01206690265582395,0.08418359373430195,10.263663193385144,-0.0003115413975335079,-0.02149051464163367,0.03413733611911106
34.9,,,,0.009798016410983275,0.03967698904848921,9.761798431187415,0.001847940845977628,-0.02097169286452001,0.03416800018379705
34.95,,,,0.11120902943608674,0.05345270399809395,9.489419245978807,0.0030184155351630306,-0.014253540353848257,0.03417832126472137
35.0,234.47517649945027,12.488409451819743,0.6788886050863838,0.14906289204828543,0.07672673330730276,9.410626506799982,0.002567904478857486,-0.005403407281206917,0.03417919543167039
35.050000000000004,,,,2.1690232549113198,0.24200805987137625,10.12911801461399,0.0001663083595933191,-0.011873733885392684,0.03595274761721986
35.1,,,,2.68293245669908,0.23456713523861578,9.95119733087373,-0.00017764123062798183,-0.014925081155043877,0.037895282600406775
35.15,,,,2.6679154046549374,0.22347104921495053,9.645432629535504,0.0008459001514611716,-0.011681480894910069,0.039830054401654325
35.2,,,,2.71931831823869,0.23703221990012008,9.52679442651557,0.0016120063028184882,-0.0059432738411451524,0.04176084004811667
35.25,,,,2.7207598273280698,0.2593135720652522,9.532555961022776,0.0015467916014622835,-0.00024694911182197556,0.04369295763286288
35.300000000000004,,,,2.6950975518369895,0.2791402488246824,9.619772833430694,0.000857807513153378,0.0036727460980880183,0.04562764436172687
35.35,,,,2.6592362511942893,0.2914379330655683,9.732185283087693,9.60360895587173e-05,0.005206298414180347,0.047563043017259575
35.4,,,,2.627227342613734,0.29768542564850187,9.825933768573531,-0.0002940322032006313,0.004671867598904219,0.04949642291744649
35.45,,,,2.607322482550729,0.302473451831551,9.878694735520513,-0.00018371533215227133,0.002905499229897313,0.05142617457571985
35.5,,,,2.60129873141205,0.30989571578436304,9.88856514660614,0.0002765304158503047,0.0008389584026994736,0.053352052982897955
35.550000000000004,,,,2.6061981599973536,0.3217022587029978,9.867294556923436,0.0008196861855976844,-0.0008093341443718335,0.05527463214050752
35.6,,,,2.616800334425764,0.33733110891602675,9.83190417984216,0.0012214638343748098,-0.0016781087026955493,0.057194813127695886
35.65,,,,2.627888902246728,0.3549897662464137,9.797770194617774,0.001383135138576204,-0.0017548297514283146,0.059113451491833106
35.7,,,,2.6357665345948966,0.37285829744413745,9.77465200050454,0.0013302662026153911,-0.001267348089697066,0.061031038682363245
35.75,,,,2.6388525723824463,0.3898429802196606,9.765753370364346,0.0011603192308027345,-0.0005395144243756451,0.06294754394043874
35.800000000000004,,,,2.637482801886892,0.4057446973307187,9.769010849081438,0.0009806697862412006,0.00013555105918910265,0.06486250415296874
35.85,,,,2.6332100298464503,0.4210072503347521,9.779465069394742,0.0008656455758276431,0.0005730115393487335,0.06677527741070194
35.9,,,,2.6279606808791978,0.43631504572041896,9.79166937216172,0.0008418209836101615,0.000717362528453779,0.06868529116775901
35.95,,,,2.6233420264728466,0.45225805728815555,9.80143865775936,0.0008959741695804613,0.0006184386292717181,0.07059217640020655
36.0,233.87261971454458,9.243415261189032,0.682740821836876,2.6202611341653825,0.469162925737016,9.806659509351007,0.0009938768374314025,0.000383521820284242,0.07249578093878022
36.050000000000004,,,,-1.4512030954071156,0.1906380476727542,8.513874180950818,0.0026816487592538486,0.028276384700417295,0.07087576914236335
36.1,,,,-2.572199664114058,0.21500721866394096,9.1582345876604,-0.0002712250233807066,0.04315425757225272,0.0689395104969486
36.15,,,,-2.6470120828815955,0.2193777655040744,10.063868958428941,-0.0046163197329213,0.03866501963232296,0.06703013683695623
36.2,,,,-2.825362641516885,0.16580879476979077,10.50823447768511,-0.006481480803899604,0.023984324952909326,0.06512266475753956
36.25,,,,-2.8643279001794504,0.10248086423630941,10.583544927623322,-0.005145627851856081,0.00680895605370322,0.06321486355422759
36.300000000000004,,,,-2.8144457267953893,0.058745049768280745,10.390875927571418,-0.0019376360247576976,-0.006836717278188628,0.061308090458099554
36.35,,,,-2.7204581524651688,0.043450703602805923,10.085189753425734,0.001186669978519939,-0.0139941429639322,0.05939629737041519
36.4,,,,-2.6235593598292666,0.04858991663956815,9.800677234143988,0.0028605788966076027,-0.014631018572541293,0.05747641602480616
36.45,,,,-2.5527891242401326,0.0593551055909824,9.616607113647392,0.0027730551963591273,-0.010671627348572013,0.0555523859071721
36.5,,,,-1.8453170498483857,0.268886029766716,9.799747022851932,0.0009645059782025078,-0.01008474889694103,0.057537087691675995
36.550000000000004,,,,0.002639566372508499,0.20871032735333625,10.204986299680558,-0.0004166575606554261,-0.018170890180431457,0.057313262119567936
36.6,,,,0.0336955298592239,0.18240144794286894,9.7767019290816,0.0003459097829812853,-0.01726093315313222,0.0572401430475181
36.65,,,,0.09194390045409531,0.18191668378171436,9.532740461291597,0.0013548500402613428,-0.011175313001388635,0.057234849186539545
36.7,,,,0.12282473374929698,0.19439900782886174,9.468580123646857,0.0015140381961269258,-0.003658973106072236,0.05723331210572697
36.75,,,,0.10547725875134271,0.2075014320741797,9.533132184918268,0.0007787032630601804,0.002542514532999203,0.05723608478386924
36.800000000000004,,,,0.06532915059864092,0.21230415701604055,9.662561210082554,-0.00028240436829315106,0.005965540886465267,0.05724122813378845
36.85,,,,0.02191395139818934,0.20791013347562667,9.793566379169711,-0.001043271800479654,0.0064802586757837085,0.05724644232860739
36.9,,,,-0.010431743587304192,0.19887232465074384,9.885052429755639,-0.0011924324120399946,0.004877290036545322,0.057249953674441675
36.95,,,,-0.025585427936493987,0.1907371870538947,9.922554843004397,-0.0007971501850507999,0.002324845000263723,0.057251296114259165
37.0,233.40911989530989,5.6123236495343996,0.6763131354506926,-0.024646286594967315,0.18688852009808182,9.913117774162632,-0.00015337400391662276,-0.00010414701572275935,0.057250830240831295
37.050000000000004,,,,2.022143405587015,0.336387561672174,10.523600597180009,-0.0003959064747220627,-0.015807980833069373,0.05901608160693681
37.1,,,,2.595442177262993,0.33474426019954906,10.15444000184147,0.0013575484280121427,-0.023924735958739167,0.06094649548503149
37.15,,,,2.643892221452414,0.3427222918258129,9.661037431653853,0.0035159950194381395,-0.02140369704032566,0.06286407838528127
37.2,,,,2.743688462605676,0.37865603662449887,9.413286231881088,0.004249616950231543,-0.013228091545084102,0.06477443834871055
37.25,,,,2.7685131483954364,0.4189974492493841,9.366780544399512,0.0033325923597156675,-0.0036750675070008946,0.06668962215229991
37.300000000000004,,,,2.741674024291801,0.4488964233701294,9.468076969034056,0.0015381909252072592,0.003916984183031387,0.06861314123511082
37.35,,,,2.6880399432800752,0.464042659609304,9.634740422767939,-0.00010281788245583161,0.00790009909777792,0.07054028003249362
37.4,,,,2.632301732210678,0.469285393209907,9.793834803636573,-0.0009094949839354534,0.008246033273811822,0.0724641846596585
37.45,,,,2.591743740810386,0.4728708413834068,9.90027554208346,-0.0007628221251047664,0.006021198783642517,0.07438072866282087
37.5,,,,2.573282569531221,0.4812877081632802,9.940152134792907,2.2863566729836753e-05,0.002715575449400078,0.0762890014218231
37.550000000000004,,,,2.5749706248106703,0.49702561949590973,9.92396215736249,0.0009758823644203276,-0.000335114135529913,0.07819000944816448
37.6,,,,2.589548006063273,0.5190045515987128,9.875169179970593,0.001710975794104881,-0.002296275488306457,0.08008569363334338
37.65,,,,2.6082859762690145,0.5443193924955685,9.818969132922614,0.002049459449649755,-0.0029230377440613835,0.0819782608611259
37.7,,,,2.6239800576535424,0.5700207349587931,9.774378398295537,0.0020143992732576284,-0.00244651920029896,0.08386944201789609
37.75,,,,2.6325726900612976,0.594222181259251,9.750760244951973,0.001751189575491199,-0.001354988541961559,0.08575989620387385
37.800000000000004,,,,2.6333773022299547,0.6163890118854704,9.748281448335206,0.0014328236626255848,-0.00016743782334454244,0.08764914237134322
37.85,,,,2.62824593972382,0.6370275852822433,9.76086116943695,0.0011907207635879968,0.0007310991453581606,0.08953600083159961
37.9,,,,2.620230954682498,0.6571264800780127,9.779956571161751,0.0010857268390402086,0.0011628758164880764,0.0914191912749223
37.95,,,,2.612293777011199,0.6776476649873545,9.797838621193597,0.001113536406287263,0.0011459844579968545,0.09329776173555517
38.0,233.13901255139322,0.9644077272991498,0.6827309095800891,2.6064406569907206,0.6992231746289532,9.809587858671966,0.0012293269667574725,0.0008278486520004678,0.09517124240823997
38.050000000000004,,,,-1.4666926032539496,0.42725137466369867,8.520407777523062,0.0028969162207992043,0.028547084689405335,0.09353655274319743
38.1,,,,-2.5877318604721475,0.45011093902152677,9.165298861356519,-0.00023917103597985488,0.04323695932638348,0.09159701550919343
38.15,,,,-2.6616183534643936,0.4506624930354061,10.068651720601922,-0.004767733930113429,0.03861114004048209,0.0897058760632013
38.2,,,,-2.8386786129425006,0.39183805308390135,10.509843452838327,-0.006754192335279677,0.023870226889199913,0.08783109331259684
38.25,,,,-2.8764128709025445,0.3220153277632648,10.582506240094071,-0.0054729415665568555,0.006703379014340213,0.08595834069071545
38.300000000000004,,,,-2.8256038134833097,0.27139253869350977,10.388391597477819,-0.002269763070688921,-0.006891012295475447,0.08408131396229011
38.35,,,,-2.731074469417248,0.24945421533358136,10.082484267294502,0.0008784619234666759,-0.013984529437897204,0.08219233104990402
38.4,,,,-2.6339808738999215,0.24851035917525408,9.798599783238592,0.0025871565573377876,-0.014568800236765544,0.08029098299657793
38.45,,,,-2.563242576141525,0.2537446146301181,9.615513848651506,0.002532242473455416,-0.010580898689333,0.07838498646838564
38.5,,,,-2.5310986579118353,0.25250223572151315,9.553377563612809,0.0012445578332202002,-0.0046870058109901485,0.07648201463782178
38.550000000000004,,,,-2.5346189855890944,0.23922044354935845,9.58902354158654,-0.0004069261356991013,0.0007429006213342987,0.07458377126868831
38.6,,,,-2.561115074794825,0.21541948141264067,9.678398612291891,-0.0016903633013644675,0.004237227886117124,0.07268711636028331
38.65,,,,-2.595004250007633,0.18654048152343178,9.77684093221742,-0.002254970363103429,0.005368085337820149,0.07078820094332396
38.7,,,,-2.623477357818383,0.1582696364700003,9.85226232757295,-0.0021315002010474813,0.004545280782312451,0.0688849127029333
38.75,,,,-2.639473874889854,0.13420066430930175,9.890124841873087,-0.0015845552436199665,0.002630059356552844,0.066976883801808
38.800000000000004,,,,-2.6419184996926806,0.11528014606651336,9.891709419299643,-0.0009330842432344829,0.0005375999230579722,0.0650646226619862
38.85,,,,-2.634099544917122,0.10049050119539818,9.868457102225685,-0.00041944516322688823,-0.0010517644656811917,0.06314890933447463
38.9,,,,-2.6213080462983753,0.08796505464801693,9.835294097948585,-0.0001552602304958569,-0.0018213613858999193,0.06123053759548231
38.95,,,,-2.608655580698135,0.07594273714852211,9.805166497291763,-0.00013234667678641064,-0.001798672772760475,0.059310154474071224
39.0,233.22087402592643,-3.6997633625805895,0.6711697898051863,-2.599626336699277,0.06330398152462571,9.78593794893902,-0.00026901811204221995,-0.0012394475872188938,0.05738813691978015
39.050000000000004,,,,-2.595548747685246,0.049687347632074524,9.779758685692093,-0.00046246831317320287,-0.00047991284682747255,0.05546457981529041
39.1,,,,-2.5958648639288304,0.03532127905022007,9.784280982120292,-0.0006281198374971207,0.00018893571569294566,0.05353940506364153
39.15,,,,-2.5988807768240285,0.020737798300555953,9.79477827247731,-0.0007188153245433827,0.000594312303757221,0.051612506784042216
39.2,,,,-2.561262077471801,-0.014668757699479704,9.822469324782858,-0.0007397759071722551,0.0003488007624982338,0.04918261907199292
39.25,,,,-0.5327421150274316,0.11117041565215922,10.465731242987642,-0.0015189016391574668,-0.013890164418463097,0.04837350093988631
39.300000000000004,,,,-0.013939159761827429,0.12396748722108655,10.13499071437856,-4.2834889379047375e-05,-0.021360089203455817,0.04848294127837617
39.35,,,,0.026586218044694174,0.10946569966770658,9.68973317401742,0.0021120352141634413,-0.01922748612555978,0.04848772383362243
39.4,,,,0.11743670375918772,0.12739447217446967,9.467912221370433,0.0030219737389974234,-0.011987121653832304,0.04848525245991111
39.45,,,,0.14081495449185216,0.15070088919382568,9.427113219029467,0.002336693645981095,-0.0034653541207794753,0.04848321452752909
39.5,,,,0.11821473852398477,0.16450957100142644,9.518544169757794,0.0007277173357119871,0.003341279591466958,0.048486049443804906
39.550000000000004,,,,0.0717068958192665,0.16397310741909665,9.667512944117712,-0.0008263810581368453,0.006946018938157534,0.048491562672768315
39.6,,,,0.023154383772825707,0.15333094977442288,9.808668968408277,-0.0016474981236650912,0.007308316125184266,0.04849616900417685
39.65,,,,-0.012118231773827787,0.14034445251034458,9.90225695134095,-0.0015869117675889755,0.0053660567733070305,0.048498290122768906
39.7,,,,-0.027919836086774542,0.13124575070871455,9.936604427413263,-0.0009178662376016323,0.002439117192856338,0.04849819701413639
39.75,,,,-0.0258756228799939,0.12848081227158403,9.921623035671214,-7.61256038707058e-05,-0.0002838904844111009,0.048496727264423965
39.800000000000004,,,,-0.012320818941325504,0.13107030025599434,9.878373154231044,0.0005751534062828075,-0.00205457499695701,0.048494702549586745
39.85,,,,0.005072625616896507,0.1362825577886907,9.829081628785021,0.0008641424421966393,-0.002645672543737361,0.04849287510614853
39.9,,,,0.019934685422552764,0.14135441855196215,9.790284902779105,0.0008087820628253575,-0.00225304195041843,0.04849180935464495
39.95,,,,0.02863854246879098,0.14455101356695005,9.769952478566209,0.0005426719504175658,-0.0013039669813704497,0.04849168197545632
40.0,233.45975940615222,-6.585243227050478,0.6771522256267815,0.030515387716099886,0.14542356186826036,9.76803599049412,0.0002256630228432648,-0.0002574056405313172,0.04849226138280811
40.050000000000004,,,,2.1096708737409853,-2.6182274436679034,10.505562772333434,-0.028042964828604213,-0.01529757877714905,0.009131029549644027
40.1,,,,2.6165859914420557,-2.6964641566942085,10.049523735883389,-0.024878785369334525,-0.021031545233230916,-0.025540134105598557
40.15,,,,2.6186836632525266,-2.058653844319838,9.586742874826136,-0.006033714184650697,-0.01687447221057132,-0.04735749667662742
40.2,,,,2.691025884712656,-1.5520588599026672,9.429092816865875,0.009213794065818466,-0.009120872769966945,-0.06243943193475358
40.25,,,,2.6977107981197563,-1.1176025132367373,9.451702510229033,0.01397717230641306,-0.0015788893623165105,-0.07310941557541173
40.300000000000004,,,,2.6701071973169426,-0.8247496404894801,9.570016046015493,0.01022310546899194,0.0036030384856074256,-0.08098844110750672
40.35,,,,2.630788978364344,-0.6813694317842687,9.707099070767411,0.0033262933999003044,0.005856780246762931,-0.08711522794401438
40.4,,,,2.595668885125157,-0.64917278888377,9.81561567255544,-0.0022423305092254286,0.005653737429368749,-0.09216140644059279
40.45,,,,2.5727487341537163,-0.6734968100643577,9.877217865697666,-0.004655488370103919,0.003942608862668437,-0.09654927724023668
40.5,,,,2.56348335415857,-0.7106259269106053,9.893741947834249,-0.004360351641354624,0.0017221365148268623,-0.10053673362313048
40.550000000000004,,,,2.565280955894749,-0.7388162597209698,9.877665570699,-0.0028131175855239613,-0.000222693686997776,-0.10427801598167942
40.6,,,,2.5736344517647063,-0.7551798540563937,9.844763610092496,-0.0013462525551173395,-0.0014397189531513957,-0.10786405264381298
40.65,,,,2.5837549013980103,-0.7664113430797087,9.809371998664574,-0.0006290550873239943,-0.0018154810669195952,-0.11134832113737986
40.7,,,,2.5917543132190746,-0.7802785224261423,9.781717418679879,-0.0006828459156857828,-0.0015011474107690154,-0.11476334677781695
40.75,,,,2.595359396510577,-0.8010933856875275,9.766853183616414,-0.0011773335558484903,-0.0007945107694970611,-0.11813053710691615
40.800000000000004,,,,2.5940954704840093,-0.8291021251868852,9.764938064949487,-0.0017404309244382764,-1.596047658110805e-05,-0.12146508144220175
40.85,,,,2.588962576141575,-0.8620837054455851,9.772561352982713,-0.0021380986002260014,0.000588461115650657,-0.12477783658845748
40.9,,,,2.1479907583721474,-1.0815755181090554,9.62627152375859,-0.0011149825201140406,0.004321443463880043,-0.1323067779864314
40.95,,,,1.281894394119986,-1.3349946777256625,9.508419243301152,-0.0008418962346909771,0.010750618884219151,-0.1448257324518421
41.0,233.13555740845987,-10.700295899275329,0.6804655146394818,1.2654133507187317,-1.3403317927722318,9.788963369166963,-0.002859635591754374,0.011279365119870322,-0.15649263623226173
41.050000000000004,,,,-1.8375190013592488,-0.6615636143080293,8.97025241269387,0.001172608201267437,0.029542234466135818,-0.1533774159026415
41.1,,,,-2.704084153164322,-0.5482144078568645,9.519165222907048,0.002045203836099116,0.03638948736716914,-0.14976403349802253
41.15,,,,-2.7551285875347444,-0.4894140443670745,10.1833752329896,0.0006318790540306902,0.028837621470917618,-0.14644840012652863
41.2,,,,-2.865455622853236,-0.46104014621585815,10.448791258219005,-0.00030534248083672656,0.015017888185049226,-0.14314831874007844
41.25,,,,-2.865599283922686,-0.4448348807461697,10.422477714130892,0.00018432126802369285,0.0011505249593836422,-0.13984395893445187
41.300000000000004,,,,-2.8029036177003652,-0.4224465237911149,10.211321895131446,0.0016372471166765953,-0.008504127193944876,-0.13652835684083023
41.35,,,,-2.7163339034081395,-0.3863698702260291,9.947444714188261,0.0030306285389098396,-0.01239255638437392,-0.13320276877010676
41.4,,,,-2.638115488937242,-0.34031554455736207,9.731996929882222,0.0036002469196806997,-0.011229037462588423,-0.12986770479321397
41.45,,,,-2.58788680624117,-0.2930785386015581,9.61449094957262,0.003195580476211807,-0.007016076408456144,-0.1265218039288612
41.5,,,,-2.570791307083092,-0.2521456222965271,9.596614698517476,0.00217650691881796,-0.0020151959550054016,-0.12316484096807538
41.550000000000004,,,,-2.5804539976950327,-0.22031108182199802,9.649203034869398,0.0010866721397037053,0.002013318218585789,-0.11979918904636475
41.6,,,,-2.6044813819267487,-0.19583037021615396,9.732173467445593,0.0003499244377535909,0.004170136011971439,-0.11642829547113283
41.65,,,,-2.6301544847354825,-0.17472216465915205,9.810338701685414,0.00012493801215788302,0.004404940013814736,-0.11305466459942233
41.7,,,,-2.6484037373613663,-0.15327606254685228,9.862056959694259,0.0003251838335209718,0.0032580926820737445,-0.10967924385051607
41.75,,,,-2.6553463832347197,-0.1295042183878546,9.880873741000302,0.0007338865583858478,0.001510878747636144,-0.10630195414767804
41.800000000000004,,,,-2.651745474315449,-0.10331325731703346,9.872199145992859,0.0011302177328593316,-0.00012396230426170316,-0.1029223634443468
41.85,,,,-2.641277017065451,-0.07585014669234802,9.847706277850804,0.0013716787846495017,-0.001193105615445003,-0.0995400506177918
41.9,,,,-2.5604536093746693,-0.015383094976530051,9.847201250962772,0.001159598459567585,-0.0021433529105967125,-0.09538784869719567
41.95,,,,-1.3020154393630023,0.2455117689468844,10.210245443447338,-0.0012656805092411086,-0.010844934697464122,-0.08547015315390583
42.0,232.28092671068356,-14.606356397433423,0.6736944870517625,-0.09407884903086726,-0.28610766714006164,10.247231068727418,-0.0020832854421407115,-0.020501831879183943,-0.08649916457986845
42.050000000000004,,,,-2.0251169613477114,-0.09183750765674696,9.129898837137647,0.003259637304941508,-0.006060656947433069,-0.08352619488618138
42.1,,,,-2.5032050311577514,0.006206098513357862,9.176804562569213,0.0047517622331355105,0.007931902987249833,-0.08015162042029057
42.15,,,,-2.5013482543447267,0.07719004680975151,9.553195082509557,0.0027570821692087496,0.014165149371642658,-0.07676608857205583
42.2,,,,-2.606168204830189,0.10561789265069219,9.84373563871908,7.407466774518184e-05,0.014070152524823099,-0.07337178472792377
42.25,,,,-2.6686704156458743,0.10724690367305302,10.02301364928202,-0.0014615648875098643,0.009735916167603978,-0.06997742327112594
42.300000000000004,,,,-2.691113690727032,0.1015874813603496,10.072367232715802,-0.0013893725238537842,0.0038865632618774568,-0.06658304525841231
42.35,,,,-2.6802420272233185,0.10341960092831141,10.023507446847018,-0.00028230558481153487,-0.0012191751433890585,-0.06318696221211972
42.4,,,,-2.6498519247245977,0.1171635929645762,9.926575689456621,0.000968502714943522,-0.004299228232895282,-0.05978928056141984
42.45,,,,-2.6148699360210426,0.13924994028611706,9.827884757375728,0.0017191916500457517,-0.005095883198330981,-0.05639071555700805
42.5,,,,-2.586636920340049,0.16314284856098304,9.757592723836009,0.0017831933905918885,-0.004111923620211851,-0.05299132785949396
42.550000000000004,,,,-2.570920435713492,0.18353732951624563,9.726717272659066,0.001342045052573132,-0.002213968387873745,-0.04959078829363237
42.6,,,,-1.7517822937860337,0.40049246056763055,10.01932382366841,-0.0013469599778666572,-0.00648190974681403,-0.04130921707128617
42.65,,,,-0.0889896117904018,-0.05497907562383455,10.334487012302006,-0.003509131364266161,-0.01776178328165645,-0.04189998166126138
42.7,,,,0.004078377919752973,-0.08916685318755373,9.872834946097353,-0.0019121932201283827,-0.01937974997870447,-0.04204524561708653
42.75,,,,0.08036375021743755,-0.09535562836651112,9.564738311680843,0.0004936130513399977,-0.014319880636010352,-0.0420708082327856
42.800000000000004,,,,0.13001326179137052,-0.07801542429569654,9.451336050644382,0.001732958589882757,-0.006560228413515048,-0.04208225304669427
42.85,,,,0.1248452707510759,-0.05569453772650835,9.489344370830985,0.001424550901362904,0.0006519235756701262,-0.04208509262981984
42.9,,,,0.08858934742817601,-0.043194561021180904,9.614105400708,0.0002416632098277282,0.005302339222045115,-0.04208349659753461
42.95,,,,0.04246742757306901,-0.04401733363797405,9.755903315249718,-0.000896607928632215,0.0068309052875042894,-0.04208105359198343
43.0,231.72590593317958,-16.363465934948984,0.6768944927595615,0.0037965578442953375,-0.05319362376778683,9.865241681508198,-0.0014113506212497066,0.005801617280643988,-0.0420799510264673
43.050000000000004,,,,2.0104374535453635,-0.25469452588245595,10.57357568619064,-0.004955787469765571,-0.010834621240821334,-0.04517346815064899
43.1,,,,2.565198441474689,-0.34832284808173886,10.244555853158017,-0.004000495330848479,-0.020978166330759464,-0.0485809647602658
43.15,,,,2.6099968459976806,-0.39241362180686024,9.751684222874859,-0.0007898152134075931,-0.020644330581016754,-0.05198064068883393
43.2,,,,2.7154607547992784,-0.39240271401191534,9.479507682790706,0.0015495862530210953,-0.014156135045566452,-0.05538650099911515
43.25,,,,2.751189713005877,-0.3767437148719526,9.399188313085531,0.0018563807597740344,-0.005486785869530824,-0.058788249353827766
43.300000000000004,,,,2.7357994207071927,-0.36795227635394073,9.469403604395241,0.0005659379338684204,0.0020134979309100773,-0.062179905289504865
43.35,,,,2.6905823044075214,-0.3765917184846782,9.614946166936923,-0.0011810160394041763,0.006471896010547681,-0.06556442090713331
43.4,,,,2.638552094973682,-0.4004349901097118,9.765195622324384,-0.002407366703492333,0.007548322744701717,-0.06894771302475769
43.45,,,,2.5971740456556747,-0.4308995887643113,9.873514769393617,-0.00272264323361482,0.006021917264795209,-0.07233301135807343
43.5,,,,2.5747810765640287,-0.45986798681545543,9.92213162277886,-0.0022891633960143046,0.0031925214543635657,-0.0757201385759724
43.550000000000004,,,,2.57127885991678,-0.4833123528558553,9.917028153709271,-0.0015432392449808115,0.00032755244626529365,-0.07910733042925974
43.6,,,,2.5810347148613664,-0.501462961842451,9.877872313414851,-0.0009030715782285385,-0.0017018612666347484,-0.0824926273861603
43.65,,,,2.5963317360628753,-0.517023491878149,9.827603842834389,-0.0005993844427742058,-0.002551695301381603,-0.08587437237462398
43.7,,,,2.610258567914627,-0.5330869188102145,9.784699285542642,-0.0006512896079329787,-0.0023392356453827475,-0.08925146124680429
43.75,,,,2.618458320977243,-0.5517502663451099,9.75934609297524,-0.0009376078497958791,-0.0014620869319251512,-0.09262354238024093
43.800000000000004,,,,2.61961365532335,-0.5736877174605459,9.753260625447487,-0.001295319902952252,-0.00039126260829232967,-0.09599095904890323
43.85,,,,2.6149003342711743,-0.5984476554551639,9.761976711732332,-0.0015951211065758364,0.0004925859895025339,-0.09935439710695522
43.9,,,,2.6068661856207522,-0.6250555306832806,9.778147055637962,-0.0017746382062365086,0.0009847782199570439,-0.10271446575223567
43.95,,,,2.5982395105323577,-0.6525639021580226,9.794600479005059,-0.0018345520672433347,0.0010628923668635612,-0.10607143904110548
44.0,230.75559873175007,-18.89082065461974,0.6827314765273975,2.591050245916037,-0.6803669878117065,9.80637021289011,-0.0018144384697458835,0.0008364666841494019,-0.10942521302595361
44.050000000000004,,,,2.5862361041309594,-0.7082673734402493,9.811442819764029,-0.0017651341001317532,0.0004727300840602005,-0.11277540342615966
44.1,,,,2.5837023011951925,-0.7363793505750768,9.810414786966922,-0.0017283085889509468,0.00012811917810978885,-0.1161214896038248
44.15,,,,2.5826740868634035,-0.7649720907483275,9.805496264914145,-0.0017268709365223945,-9.558116400717017e-05,-0.11946294613916537
44.2,,,,2.5821436040201764,-0.7943281565427254,9.799353742996011,-0.0017648159304186166,-0.00016489122428251708,-0.1227993351492437
44.25,,,,2.581247176030091,-0.8246533649323263,9.794179315194047,-0.0018328266713233538,-0.00010336634726843482,-0.1261303486284226
44.300000000000004,,,,2.5794813847058276,-0.8560429747466665,9.791189326021385,-0.001915779651787527,3.340895023492296e-05,-0.1294558015660554
44.35,,,,2.5767430162424505,-0.8884918268571571,9.790567210523907,-0.001999275557285788,0.00018469825012382236,-0.13277558907284012
44.4,,,,2.5732354784154254,-0.9219297235889454,9.791730204339746,-0.002073655831787896,0.00030463387471409674,-0.13608962973311023
44.45,,,,2.5693114978880676,-0.9562636901071838,9.793741063501963,-0.0021351996915206033,0.00037145972450567874,-0.13939781761645859
44.5,,,,2.5653196644715006,-0.9914127658242468,9.795697982250893,-0.0021851061456702875,0.0003865686586316054,-0.14269999675716244
44.550000000000004,,,,2.5615002269666083,-1.027327030438131,9.796993504572518,-0.0022273493967803707,0.00036682069173688084,-0.14599595935592335
44.6,,,,2.557946386568723,-1.0639895621585227,9.79740553382871,-0.0022665216946446934,0.00033457440250908284,-0.14928545877718408
44.65,,,,2.554622360718611,-1.101406390907937,9.79704473662329,-0.00230640456888365,0.00030917259771561656,-0.15256822513745041
44.7,,,,2.551415028570564,-1.1395931206867338,9.796218021961991,-0.0023494286026592946,0.0003020154060759564,-0.1558439758582308
44.75,,,,2.5481930317776254,-1.1785659671796422,9.795274742562,-0.002396691823991374,0.0003155998399170821,-0.15911242228671155
44.800000000000004,,,,2.54485299798448,-1.2183396994440603,9.794487349297507,-0.0024480786444039965,0.0003455778547120951,-0.16237327919099692
