Time,GPS_X,GPS_Y,GPS_Z,Accel_X,Accel_Y,Accel_Z,Gyro_X,Gyro_Y,Gyro_Z
0.1,,,,-0.000452824,-0.001008335,0.003504994,-6.15E-05,-0.000134466,3.86E-05
0.15,,,,4.623747676,-0.292337138,9.444895254,-0.013403446,-0.050575654,-0.005410273
0.2,,,,4.359594056,-0.488119605,20.65256636,-0.008138965,-0.077425238,-0.01117917
0.25,,,,2.594655734,-0.488255317,19.54003655,0.003520771,-0.059076861,-0.015209329
0.3,,,,3.152788254,-0.398927549,15.34468878,0.009781462,-0.025105094,-0.019256009
0.35,,,,3.165640562,-0.300625995,10.37231641,0.008593077,0.012647495,-0.023151688
0.4,,,,3.043193611,-0.230533102,7.138814759,0.002536983,0.039272482,-0.026895944
0.45,,,,2.788473863,-0.220641345,6.302879186,-0.003969425,0.047456852,-0.03056425
0.5,,,,2.510520561,-0.265119081,7.290062716,-0.007666841,0.038248508,-0.034212641
0.55,,,,2.333552774,-0.330549841,8.997649183,-0.007497424,0.01862073,-0.037846861
0.6,,,,2.307557243,-0.382434663,10.43680097,-0.004371206,-0.002355354,-0.0414566
0.65,,,,2.400180126,-0.404153929,11.09562267,-0.000285769,-0.017228862,-0.045043858
0.7,,,,2.542348128,-0.398590572,10.97618704,0.002787988,-0.022501096,-0.048617836
0.75,,,,2.671527901,-0.379686519,10.40428586,0.003776507,-0.018932772,-0.052180804
0.8,,,,2.749547,-0.363252914,9.774489982,0.00276099,-0.010147823,-0.055728916
0.85,,,,2.764725392,-0.360505085,9.363020192,0.000633594,-0.000543431,-0.059262004
0.9,,,,2.728352069,-0.37481136,9.259995385,-0.001510119,0.006470141,-0.062786471
0.95,,,,2.666210492,-0.402155161,9.401497536,-0.002877354,0.009346362,-0.066309838
1,293.0645405,-2.000058,0.683704587,2.606165932,-0.434724344,9.649964592,-0.003199615,0.008368633,-0.069835696
1.05,,,,2.567304777,-0.465282527,9.873686728,-0.002678091,0.005007732,-0.073363583
1.1,,,,2.55550644,-0.48995011,9.995546708,-0.001766464,0.001075715,-0.076891391
1.15,,,,2.565593968,-0.508626916,10.00357056,-0.00092567,-0.001978277,-0.080416995
1.2,,,,2.586791511,-0.523767726,9.932840837,-0.000451679,-0.003436207,-0.083938592
1.25,,,,2.608130643,-0.538645009,9.835864023,-0.000418338,-0.003321461,-0.087454799
1.3,,,,2.622027579,-0.555920942,9.756844783,-0.000720349,-0.002159206,-0.090964981
1.35,,,,2.625627433,-0.576901199,9.718227787,-0.001167912,-0.000646748,-0.09446942
1.4,,,,2.620250231,-0.601500133,9.720109987,-0.001581056,0.000627156,-0.097969026
1.45,,,,2.609667651,-0.628711482,9.748051736,-0.001849389,0.001337303,-0.10146477
1.5,,,,2.598104063,-0.657259602,9.783364289,-0.00194752,0.00144176,-0.104957239
1.55,,,,2.588716475,-0.686133681,9.811246219,-0.001915759,0.001104119,-0.108446477
1.6,,,,2.582919919,-0.714847528,9.82462887,-0.001824672,0.000575207,-0.111932083
1.65,,,,2.580505924,-0.743426638,9.823915873,-0.001741258,8.55E-05,-0.115413402
1.7,,,,2.580244216,-0.772224576,9.814197275,-0.00170779,-0.000221165,-0.118889733
1.75,,,,2.58060707,-0.801693084,9.801835069,-0.001736127,-0.000304276,-0.122360479
1.8,,,,2.580345552,-0.832199485,9.791841071,-0.001814075,-0.000205999,-0.125825245
1.85,,,,2.578788005,-0.863934858,9.786665215,-0.001917476,-1.09E-05,-0.129283836
1.9,,,,2.575860532,-0.896911242,9.786292203,-0.002022045,0.000194085,-0.132736202
1.95,,,,2.571914756,-0.931017718,9.789131471,-0.002111154,0.000347454,-0.136182342
2,296.8653542,-2.732754597,0.68276471,2.567479859,-0.966096412,9.79310742,-0.002178493,0.000423731,-0.139622228
2.05,,,,2.563041197,-1.002006702,9.796511722,-0.002226562,0.000429603,-0.143055747
2.1,,,,2.558905531,-1.038661267,9.798423899,-0.002262962,0.000391374,-0.146482692
2.15,,,,2.555165844,-1.076033096,9.798722517,-0.002296404,0.00034053,-0.149902777
2.2,,,,2.551743359,-1.114142278,9.79783544,-0.002333711,0.000302447,-0.15331567
2.25,,,,2.548468157,-1.153034099,9.79640658,-0.002378322,0.000290664,-0.156721031
2.3,,,,2.54516093,-1.192757356,9.795016599,-0.002430206,0.000306619,-0.160118541
2.35,,,,2.54169064,-1.233347669,9.794025781,-0.002486836,0.000343143,-0.163507926
2.4,,,,2.537998606,-1.274817815,9.793542723,-0.002544733,0.000389408,-0.166888955
2.45,,,,2.53409295,-1.317156385,9.793481438,-0.002601023,0.000435364,-0.170261425
2.5,,,,2.530024968,-1.36033538,9.793656192,-0.002654428,0.000474509,-0.173625131
2.55,,,,2.525860481,-1.404324475,9.793871327,-0.002705289,0.000504723,-0.176979841
2.6,,,,2.521656133,-1.44910492,9.793981719,-0.002754703,0.000527534,-0.180325294
2.65,,,,2.517445701,-1.494673989,9.793917793,-0.002803459,0.000546519,-0.183661212
2.7,,,,2.513237128,-1.541036274,9.793681082,-0.002851623,0.000565578,-0.186987329
2.75,,,,2.507200699,-1.590439881,9.792648771,-0.002904268,0.000602119,-0.190345887
2.8,,,,2.488288268,-1.65136908,9.788434462,-0.002998318,0.000726876,-0.193918504
2.85,,,,2.483299214,-1.701199654,9.791459944,-0.003101034,0.000784977,-0.197460341
2.9,,,,2.478803671,-1.753245461,9.793643619,-0.003179416,0.000791121,-0.200995021
2.95,,,,2.474050001,-1.806187203,9.794336869,-0.003229055,0.00077454,-0.204522393
3,302.9830484,-4.819937256,0.682648964,2.469761348,-1.859570769,9.793964556,-0.003260162,0.000756959,-0.208038435
3.05,,,,-1.492356014,-1.435891466,8.51359739,0.00505696,0.028543424,-0.203730692
3.1,,,,-2.652046185,-1.363983299,9.15092243,0.005915346,0.043423909,-0.201031374
3.15,,,,-1.67877705,-1.816331319,10.39736614,-0.000163668,0.031616664,-0.209873197
3.2,,,,-1.666591118,-1.887178668,10.65346827,-0.005081009,0.013583211,-0.218512839
3.25,,,,-1.567741795,-1.938130145,10.55537639,-0.006361607,-0.003154173,-0.225741839
3.3,,,,-0.409771376,-1.673201904,10.54679586,-0.005585321,-0.020230378,-0.224984211
3.35,,,,-0.21255333,-1.759593865,9.980344576,-0.00112556,-0.025188433,-0.225148042
3.4,,,,-0.095050878,-1.750926971,9.552561293,0.002595962,-0.02044423,-0.225367504
3.45,,,,-0.013920822,-1.707457903,9.362622969,0.003568353,-0.010874435,-0.225538015
3.5,,,,-0.003416311,-1.667763742,9.373557946,0.002119599,-0.000934477,-0.225635389
3.55,,,,-0.040401302,-1.650349437,9.511430456,-0.000259355,0.006279803,-0.225668213
3.6,,,,-0.09827441,-1.65559496,9.689830833,-0.002134212,0.009509877,-0.225664773
3.65,,,,-0.152822923,-1.672757242,9.841449653,-0.002808023,0.009087986,-0.225652629
3.7,,,,-0.188888432,-1.689724981,9.930631286,-0.002368558,0.006317675,-0.225648268
3.75,,,,-0.201818453,-1.699148045,9.952374175,-0.00135339,0.002777436,-0.225656459
3.8,,,,-0.195252838,-1.699707874,9.923057333,-0.000349465,-0.000231093,-0.225673989
3.85,,,,-0.177337285,-1.694207912,9.868376644,0.000267688,-0.001978454,-0.225694064
3.9,,,,-0.156948531,-1.686784793,9.812794133,0.000403268,-0.002341697,-0.22571015
3.95,,,,-0.14091304,-1.680781699,9.772912715,0.000173968,-0.001649388,-0.225718552
4,309.3410964,-8.555886804,0.677073058,-0.132650112,-1.677809122,9.755304172,-0.000214172,-0.000441813,-0.225719161
4.05,,,,-2.159898597,-1.483786098,9.102980215,0.003468425,0.014944934,-0.222556661
4.1,,,,-2.722913721,-1.368165016,9.446987913,0.003811895,0.023239715,-0.219100838
4.15,,,,-2.764652556,-1.285035693,9.925756411,0.002030972,0.021179562,-0.215682316
4.2,,,,-2.856524654,-1.239098454,10.16636195,0.000611626,0.013540696,-0.212277665
4.25,,,,-2.875441738,-1.207071679,10.21128791,0.000551765,0.004446843,-0.208882511
4.3,,,,-2.846371155,-1.171661714,10.1132149,0.001576051,-0.002857102,-0.205494539
4.35,,,,-2.792974328,-1.124382777,9.953931504,0.002825666,-0.0067576,-0.202109003
4.4,,,,-2.737542651,-1.066876493,9.804648964,0.003565169,-0.007205758,-0.198718912
4.45,,,,-2.695752741,-1.006046572,9.707647155,0.003534004,-0.005203512,-0.195317151
4.5,,,,-2.674220982,-0.948639072,9.674107884,0.002918004,-0.00215549,-0.191899894
4.55,,,,-2.671489387,-0.898032422,9.692122159,0.002112813,0.000680156,-0.188467961
4.6,,,,-2.680993947,-0.853846554,9.738595648,0.001475638,0.002516028,-0.185025162
4.65,,,,-2.694641005,-0.813446586,9.790046326,0.001184382,0.003115862,-0.181575567
4.7,,,,-2.705718899,-0.773891775,9.829605271,0.00122505,0.002687373,-0.178121725
4.75,,,,-2.710455749,-0.733268599,9.849628767,0.001463206,0.001678962,-0.17466434
4.8,,,,-2.708192643,-0.691078135,9.850758266,0.001737346,0.000570134,-0.171202832
4.85,,,,-2.700581253,-0.647906075,9.838935883,0.001928323,-0.000280991,-0.167736118
4.9,,,,-2.690362597,-0.604803892,9.821915904,0.001987184,-0.000706129,-0.16426323
4.95,,,,-2.680214449,-0.562737464,9.806424246,0.001927095,-0.000717334,-0.160783671
5,313.7894216,-12.64334127,0.67110135,-2.671977378,-0.522280308,9.796550543,0.001796279,-0.000446745,-0.15729749
5.05,,,,-2.666367196,-0.483563826,9.793420772,0.001649008,-6.93E-05,-0.153805138
5.1,,,,-2.66311042,-0.446399624,9.795825747,0.001525491,0.000262977,-0.150307239
5.15,,,,-2.661334237,-0.410462987,9.80131909,0.001444019,0.000459748,-0.146804387
5.2,,,,-2.660016295,-0.37545061,9.807322409,0.001403175,0.000499936,-0.143297039
5.25,,,,-2.658339973,-0.341170153,9.811919591,0.001389465,0.000416513,-0.139785493
5.3,,,,-2.655876729,-0.307559722,9.814209588,0.001385847,0.000269621,-0.136269939
5.35,,,,-2.652594236,-0.274659167,9.814253294,0.001378172,0.000119927,-0.132750515
5.4,,,,-2.648742341,-0.242561314,9.812755609,0.001358396,1.01E-05,-0.129227357
5.45,,,,-2.644689558,-0.211365707,9.810657027,0.001324819,-4.22E-05,-0.125700625
5.5,,,,-2.640774885,-0.181147449,9.808782176,0.00128039,-4.24E-05,-0.122170512
5.55,,,,-2.637214846,-0.151944333,9.807631145,0.001230259,-9.41E-06,-0.118637235
5.6,,,,-2.63407656,-0.123759161,9.807331369,0.001179536,3.37E-05,-0.115101021
5.65,,,,-2.631304412,-0.096571173,9.807715079,0.001131818,6.84E-05,-0.111562095
5.7,,,,-2.628775511,-0.070350262,9.808460815,0.00108863,8.46E-05,-0.108020675
5.75,,,,-2.626358174,-0.045069119,9.809237249,0.001049646,8.11E-05,-0.104476962
5.8,,,,-2.623954745,-0.020710605,9.809805652,0.001013374,6.34E-05,-0.10093115
5.85,,,,-2.62152069,0.002730173,9.81006303,0.000977958,3.95E-05,-0.097383424
5.9,,,,-1.775236925,0.340957524,10.09363569,-0.000995324,-0.006107178,-0.086475485
5.95,,,,-1.315755018,0.391677659,10.01238411,-0.00082284,-0.010654877,-0.07436763
6,315.9215645,-15.36781819,0.674091796,-0.374405136,-0.142619757,10.07374595,-0.00076371,-0.016580332,-0.073705073
6.05,,,,2.069403075,-0.410571412,10.48227324,-0.003747493,-0.031465419,-0.077387886
6.1,,,,2.654532212,-0.489733046,9.883556982,-0.002624663,-0.033709738,-0.0809855
6.15,,,,2.72861,-0.528075028,9.343851237,-8.44E-05,-0.024155548,-0.084535317
6.2,,,,2.810139349,-0.528235406,9.165649182,0.001075203,-0.010346203,-0.088073269
6.25,,,,2.794679409,-0.522147071,9.243672781,0.000305989,0.002139279,-0.091598916
6.3,,,,2.725255198,-0.529965674,9.466232939,-0.001493198,0.009931035,-0.095112674
6.35,,,,2.640688364,-0.55687466,9.714011996,-0.003078545,0.012206299,-0.098622353
6.4,,,,2.571197489,-0.595794055,9.902488643,-0.003686746,0.010080176,-0.102134318
6.45,,,,2.532101189,-0.636118534,9.994925972,-0.003274348,0.005626124,-0.105649812
6.5,,,,2.524259503,-0.670538387,9.996260071,-0.002298302,0.000941491,-0.109166914
6.55,,,,2.538963477,-0.697322864,9.936986391,-0.001334474,-0.002486088,-0.112682786
6.6,,,,2.563739404,-0.719049593,9.855230681,-0.000780181,-0.004024731,-0.116194497
6.65,,,,2.500262915,-0.781814353,9.748086489,-0.000412768,-0.00306213,-0.120671291
6.7,,,,1.03913683,-0.908012089,9.250955301,0.001836078,0.008912251,-0.128093262
6.75,,,,0.030312655,-0.490913825,9.321203207,0.001699178,0.019877016,-0.127176852
6.8,,,,-0.016090697,-0.496609552,9.81173103,-0.000461713,0.020475309,-0.127125522
6.85,,,,-0.11424518,-0.50458822,10.09880367,-0.002223562,0.014641362,-0.127104538
6.9,,,,-0.155881468,-0.527134736,10.1934871,-0.002466049,0.00631148,-0.127102641
6.95,,,,-0.145304813,-0.545603784,10.13592849,-0.001423389,-0.001166696,-0.127108056
7,317.7969961,-18.3636143,0.675505917,-0.105036628,-0.551082967,9.997597145,1.28E-05,-0.005809414,-0.127116719
7.05,,,,1.970994244,-0.743183598,10.50313325,-0.00290436,-0.021339817,-0.130335094
7.1,,,,2.567249848,-0.834844884,10.06177013,-0.00278534,-0.027512228,-0.133867631
7.15,,,,2.623605439,-0.889683298,9.548866246,-0.001072655,-0.022451947,-0.137378715
7.2,,,,1.331486328,-0.861483431,8.848246441,0.002973259,-0.001818682,-0.140494675
7.25,,,,0.128426122,-0.639221385,8.857517938,0.003582695,0.019433264,-0.140177243
7.3,,,,0.082121326,-0.595263336,9.520761679,0.000379971,0.026787558,-0.140144587
7.35,,,,-0.083992103,-0.596811634,9.995630931,-0.002842527,0.023630606,-0.140115112
7.4,,,,-0.179082616,-0.627688857,10.24670546,-0.003989096,0.014393744,-0.140100553
7.45,,,,-0.20070194,-0.659604476,10.27515163,-0.002952788,0.003875443,-0.140098758
7.5,,,,-0.169241133,-0.675029026,10.15080914,-0.00086025,-0.004329739,-0.140105856
7.55,,,,-0.111391601,-0.671430954,9.965661887,0.000984152,-0.008513917,-0.140118124
7.6,,,,-0.052695408,-0.656429701,9.796916654,0.001813316,-0.00873078,-0.140130444
7.65,,,,-0.010656597,-0.640281015,9.689419056,0.001568827,-0.006198184,-0.140137583
7.7,,,,0.00758161,-0.630238303,9.654067096,0.000675667,-0.002557626,-0.140137383
7.75,,,,0.004128672,-0.628433101,9.676736452,-0.000314069,0.000747644,-0.140131667
7.8,,,,-0.013103675,-0.632831121,9.731172199,-0.000996768,0.002835408,-0.140124233
7.85,,,,-0.034572806,-0.639637222,9.790753255,-0.001225502,0.00346682,-0.140118326
7.9,,,,-0.052493039,-0.645504771,9.836271985,-0.00107296,0.002913453,-0.140115445
7.95,,,,-0.062616741,-0.64867236,9.85897321,-0.000722994,0.001715489,-0.140115496
8,319.6861931,-22.43174959,0.676592514,-0.06437547,-0.649007933,9.859619822,-0.000362462,0.000436077,-0.140117478
8.05,,,,-2.087575708,-0.449055211,9.190304159,0.003824867,0.013677376,-0.136915715
8.1,,,,-2.63902845,-0.341001526,9.498048178,0.004057236,0.020712811,-0.133391601
8.15,,,,-2.66731372,-0.272866553,9.937293345,0.001854508,0.01839463,-0.129881091
8.2,,,,-1.922360299,-0.239769929,10.45264837,-0.002226054,0.004727867,-0.125799579
8.25,,,,-0.193975319,-0.501247525,10.77687795,-0.004699003,-0.016552426,-0.126160069
8.3,,,,-0.157845497,-0.557818622,10.14173091,-0.002306094,-0.024631696,-0.126194626
8.35,,,,-0.014100814,-0.570043731,9.667792917,0.001075789,-0.022376637,-0.126208613
8.4,,,,0.085012128,-0.546622144,9.409901498,0.002839808,-0.014025678,-0.126222757
8.45,,,,0.112756448,-0.514661309,9.365949374,0.002401857,-0.004121589,-0.126229223
8.5,,,,0.087542627,-0.495097921,9.473885082,0.000631518,0.00383012,-0.126224175
8.55,,,,0.034097271,-0.494380915,9.64646093,-0.001187614,0.008083749,-0.126212847
8.6,,,,-0.022017044,-0.506785027,9.808782286,-0.002173115,0.00857227,-0.126202677
8.65,,,,-0.063041616,-0.522208611,9.915786567,-0.002126969,0.00637025,-0.126197615
8.7,,,,-0.081706452,-0.532810271,9.954688361,-0.001378868,0.003003272,-0.126197854
8.75,,,,-0.079758189,-0.535727271,9.937223615,-0.000448011,-0.00014827,-0.126201728
8.8,,,,-0.064406976,-0.532374261,9.887637223,0.000247582,-0.00221027,-0.126207021
8.85,,,,-0.044463812,-0.526186891,9.8313264,0.000525978,-0.00291188,-0.126211644
8.9,,,,-0.027299475,-0.520458118,9.787100718,0.000426789,-0.002474126,-0.126214213
8.95,,,,-0.017156643,-0.517107013,9.76397511,0.000114118,-0.001388558,-0.126214429
9,320.9049113,-26.35517652,0.677156457,-0.014868091,-0.516475667,9.761838623,-0.000230631,-0.000185513,-0.126212943
9.05,,,,-2.046346689,-0.318993334,9.119883616,0.003440235,0.014927282,-0.123002303
9.1,,,,-2.612422734,-0.217590707,9.467188217,0.003400751,0.022854381,-0.119467855
9.15,,,,-2.655228417,-0.156783243,9.942398908,0.001182346,0.020490636,-0.115946493
9.2,,,,-2.747098073,-0.136069061,10.17635017,-0.00053561,0.012694559,-0.112427727
9.25,,,,-2.765858873,-0.130111178,10.21489834,-0.000711504,0.003597344,-0.108909839
9.3,,,,-2.73715152,-0.120166618,10.11266747,0.000331946,-0.003599253,-0.105390676
9.35,,,,-2.684964383,-0.097683924,9.951861272,0.001659687,-0.007344118,-0.10186979
9.4,,,,-2.631596248,-0.064731596,9.803067764,0.002477268,-0.007644106,-0.098347097
9.45,,,,-2.592499231,-0.028571075,9.707563802,0.002497828,-0.005535903,-0.094821505
9.5,,,,-2.573956449,0.003969713,9.675642586,0.001906206,-0.002435075,-0.091291961
9.55,,,,-2.574193975,0.029636344,9.69484395,0.001107212,0.000408028,-0.087758554
9.6,,,,-2.5864382,0.048962971,9.741867125,0.000466239,0.002224052,-0.084222223
9.65,,,,-2.096019239,0.271623931,9.977489423,-0.001276761,-0.001169991,-0.075878175
9.7,,,,-0.35449921,-0.093087243,10.42501967,-0.003529314,-0.014551124,-0.074666028
9.75,,,,-0.034020106,-0.218204827,10.03810114,-0.002159337,-0.019991173,-0.075022665
9.8,,,,0.030890679,-0.221391258,9.652928989,0.000392353,-0.017111473,-0.075050521
9.85,,,,0.10500978,-0.205565056,9.471311649,0.001897161,-0.009973962,-0.075065466
9.9,,,,0.119101967,-0.181505486,9.458043837,0.00174467,-0.002139465,-0.075069
9.95,,,,0.093224648,-0.166054137,9.558516593,0.000518211,0.003784749,-0.075066387
10,321.4582791,-29.24611402,0.677871531,0.048554771,-0.164724301,9.701089016,-0.000812259,0.006642329,-0.075061626
10.05,,,,2.032740092,-0.373499242,10.48063506,-0.005399971,-0.007610083,-0.07827782
10.1,,,,2.561408274,-0.479767055,10.22597639,-0.005199322,-0.017093627,-0.0818206
10.15,,,,2.585044461,-0.539889309,9.787445548,-0.002208,-0.017462122,-0.085356143
10.2,,,,2.678130989,-0.554467139,9.540646152,0.000355436,-0.012389229,-0.088897613
10.25,,,,2.711069381,-0.549930537,9.459305548,0.001080789,-0.005197799,-0.09243486
10.3,,,,2.700189066,-0.548784373,9.511276519,0.000168239,0.001223023,-0.095960406
10.35,,,,2.662894096,-0.563085706,9.632286319,-0.001372099,0.005197558,-0.099475606
10.4,,,,2.618427461,-0.592372317,9.760810779,-0.002578224,0.00634416,-0.102986168
10.45,,,,2.581790322,-0.629239704,9.855570525,-0.002999371,0.005248509,-0.106496462
10.5,,,,2.560514022,-0.665909355,9.900117636,-0.002715016,0.002969688,-0.110007665
10.55,,,,2.555055952,-0.698072488,9.898613778,-0.002095288,0.000573529,-0.113518677
10.6,,,,2.561073431,-0.725434313,9.867254091,-0.001525458,-0.001182991,-0.117027427
10.65,,,,2.055038202,-0.961685309,9.639236843,0.000171361,0.002052525,-0.125426074
10.7,,,,0.308966429,-0.606384994,9.202505202,0.002296089,0.015078211,-0.12652287
10.75,,,,-0.001395951,-0.49270308,9.596172898,0.001187473,0.020104073,-0.126191198
10.8,,,,-0.066989388,-0.490158856,9.977859526,-0.000991476,0.016975091,-0.126165501
10.85,,,,-0.137529425,-0.504849416,10.15431391,-0.002218131,0.009755375,-0.126155362
10.9,,,,-0.147961191,-0.526367729,10.16190314,-0.001958755,0.001975516,-0.126157012
10.95,,,,-0.120351704,-0.539581705,10.05686048,-0.000768951,-0.00381209,-0.126163163
11,321.7827307,-32.77351116,0.675955531,-0.075702351,-0.539858596,9.91211358,0.000455682,-0.006514423,-0.126171312
11.05,,,,-2.060362358,-0.332185325,9.131673526,0.005007413,0.007862238,-0.122969127
11.1,,,,-2.590035365,-0.217670466,9.384690031,0.004974622,0.017410256,-0.119439539
11.15,,,,-2.615036004,-0.147565529,9.822603942,0.002151684,0.017779846,-0.115918845
11.2,,,,-2.707184537,-0.124067189,10.06777999,-0.000348674,0.012657644,-0.112397836
11.25,,,,-2.737993682,-0.120744948,10.1462384,-0.001127222,0.005394189,-0.108877548
11.3,,,,-2.725623273,-0.115890724,10.09106294,-0.00034354,-0.001090711,-0.105356695
11.35,,,,-2.687942404,-0.098173261,9.968094425,0.001043767,-0.005103103,-0.101834627
11.4,,,,-2.64362208,-0.068081394,9.839797977,0.002108801,-0.006259365,-0.098311251
11.45,,,,-2.607150435,-0.032575491,9.747160277,0.002414328,-0.005153086,-0.094785629
11.5,,,,-2.586005394,0.000942837,9.705451529,0.002036683,-0.002853107,-0.091256563
11.55,,,,-2.580809539,0.028300665,9.709237675,0.001335821,-0.000432625,-0.087723735
11.6,,,,-2.587315805,0.049212062,9.741578049,0.000686873,0.001346964,-0.084187767
11.65,,,,-2.599195759,0.065885715,9.783108117,0.000311933,0.002158818,-0.080649489
11.7,,,,-2.610574384,0.081082485,9.818490045,0.000244907,0.002067664,-0.077109408
11.75,,,,-2.617626551,0.096735132,9.839415823,0.000389085,0.001386235,-0.073567689
11.8,,,,-1.665806875,0.400071912,10.16524329,-0.001574104,-0.006420825,-0.063212385
11.85,,,,-0.201372851,-0.130114255,10.36788004,-0.002775847,-0.018834856,-0.063590728
11.9,,,,-0.011453944,-0.167193072,9.907535472,-0.001046954,-0.021474574,-0.063815335
11.95,,,,0.070645305,-0.165024958,9.561360055,0.001115031,-0.01643191,-0.063848297
12,321.7500723,-35.60945938,0.678634519,0.130222713,-0.145526523,9.425290429,0.001986485,-0.008043885,-0.063861564
12.05,,,,2.157131044,-0.323962234,10.10757142,-0.002467033,-0.014134789,-0.067084657
12.1,,,,2.678421798,-0.406482501,9.903759931,-0.003601704,-0.016157122,-0.070627214
12.15,,,,2.664685987,-0.458793867,9.596220976,-0.00230385,-0.0117802,-0.074161728
12.2,,,,2.710570485,-0.478657845,9.492694597,-0.000881651,-0.00521286,-0.07770146
12.25,,,,2.70346334,-0.484540988,9.519979442,-0.000401456,0.000830106,-0.081238979
12.3,,,,2.669626174,-0.491510799,9.625856737,-0.000836171,0.004653933,-0.084770041
12.35,,,,2.62811322,-0.507758028,9.748868208,-0.001598439,0.00582223,-0.088295711
12.4,,,,2.593512851,-0.532980083,9.844338397,-0.002126168,0.004858784,-0.091818731
12.45,,,,2.573376209,-0.562384283,9.892290267,-0.002189553,0.002759932,-0.095340728
12.5,,,,2.568226971,-0.591193511,9.894496746,-0.001889162,0.000535198,-0.098861734
12.55,,,,2.57391049,-0.617119073,9.866077061,-0.00148332,-0.001099906,-0.102380767
12.6,,,,2.584424822,-0.640528386,9.826140016,-0.001204063,-0.001840525,-0.105896448
12.65,,,,2.594286017,-0.663264944,9.790636312,-0.001156095,-0.001748775,-0.109407507
12.7,,,,2.599953054,-0.687257043,9.768713618,-0.001312867,-0.001115942,-0.112913191
12.75,,,,2.600239019,-0.713634628,9.762364041,-0.001572821,-0.000301775,-0.116413413
12.8,,,,2.595913267,-0.742536847,9.768285877,-0.001827116,0.000394672,-0.119908577
12.85,,,,2.588855339,-0.773414096,9.780644211,-0.002005307,0.000804924,-0.123399211
12.9,,,,2.581144615,-0.805496739,9.793629507,-0.002088727,0.000899999,-0.126885663
12.95,,,,2.574375797,-0.838169299,9.803152151,-0.00209892,0.000754985,-0.130367946
13,321.410414,-38.94351618,0.682692385,2.569334608,-0.871139101,9.807477388,-0.002075431,0.000493721,-0.133845763
13.05,,,,2.566017653,-0.904419148,9.806967814,-0.002055441,0.000236258,-0.137318621
13.1,,,,2.563882034,-0.938208574,9.803298239,-0.002061882,6.39E-05,-0.140785973
13.15,,,,2.562177938,-0.972755475,9.798540299,-0.002100846,7.09E-06,-0.144247331
13.2,,,,2.560239047,-1.008255848,9.794424344,-0.002165596,5.18E-05,-0.147702335
13.25,,,,2.557657196,-1.044807073,9.791937049,-0.002243363,0.000158202,-0.151150761
13.3,,,,2.554324997,-1.082409682,9.791265559,-0.002321699,0.000280357,-0.154592474
13.35,,,,2.550374608,-1.120999671,9.791994735,-0.002392486,0.000382314,-0.15802737
13.4,,,,2.546063351,-1.160491475,9.793419783,-0.002453027,0.000445742,-0.161455315
13.45,,,,2.541657177,-1.200814488,9.794846322,-0.002504808,0.00047,-0.164876119
13.5,,,,2.537347746,-1.2419317,9.795793805,-0.002551163,0.000466804,-0.168289543
13.55,,,,2.533217663,-1.283837339,9.796072587,-0.002595261,0.000452801,-0.171695315
13.6,,,,2.529249485,-1.326540177,9.795750721,-0.002639272,0.000442953,-0.175093161
13.65,,,,2.525362514,-1.370046378,9.795053583,-0.002684647,0.000446487,-0.178482796
13.7,,,,2.521457866,-1.414354695,9.794246177,-0.002732636,0.000465888,-0.18186392
13.75,,,,2.517455433,-1.45946578,9.793538939,-0.002784125,0.000498297,-0.185236219
13.8,,,,2.189228984,-1.646814617,9.671822482,-0.001863872,0.003155383,-0.191850922
13.85,,,,1.230573589,-1.966382405,9.482594642,-0.001439515,0.010061481,-0.204537079
13.9,,,,0.709855476,-1.684918643,9.577458085,-0.002494586,0.015127628,-0.209938258
13.95,,,,-0.148721157,-1.418120427,9.643461323,-0.002402252,0.018930559,-0.209117116
14,320.0471325,-44.69089938,0.6765903,-0.174632056,-1.453360569,9.984636456,-0.002253454,0.015352224,-0.209165857
14.05,,,,1.801811926,-1.655137271,10.78323934,-0.005717337,-0.005777966,-0.212395774
14.1,,,,2.352420334,-1.7750122,10.44391595,-0.00530112,-0.020302082,-0.215919393
14.15,,,,2.41362937,-1.857314802,9.877936039,-0.002628212,-0.022899647,-0.219390759
14.2,,,,2.473632977,-1.931341901,9.488122516,-0.000355651,-0.016856964,-0.223603229
14.25,,,,0.529526965,-1.792710823,8.720544932,0.003362438,0.006397133,-0.225143288
14.3,,,,0.009929729,-1.645299393,9.101812123,0.00229099,0.022343659,-0.224910529
14.35,,,,-0.077858904,-1.618118097,9.694987518,-0.001121498,0.025824411,-0.224854858
14.4,,,,-0.220939245,-1.632673232,10.08380282,-0.003619976,0.020583523,-0.224804188
14.45,,,,-0.28712613,-1.666174824,10.25108065,-0.003886365,0.011058303,-0.224776518
14.5,,,,-0.289726563,-1.693653219,10.22162641,-0.002353822,0.0015456,-0.2247759
14.55,,,,-0.249845322,-1.702645334,10.07474069,-0.000282529,-0.005096934,-0.224797652
14.6,,,,-0.193111806,-1.694451938,9.896839569,0.001197564,-0.007817363,-0.224829774
14.65,,,,-0.141573885,-1.678095353,9.752490273,0.001594569,-0.007077577,-0.224857554
14.7,,,,-0.108695559,-1.663254374,9.673170856,0.001059156,-0.004217458,-0.224870603
14.75,,,,-0.098272917,-1.65566395,9.659973465,9.06E-05,-0.000773002,-0.224867212
14.8,,,,-0.106286279,-1.65600942,9.694178534,-0.000801466,0.002039858,-0.224853032
14.85,,,,-0.124490341,-1.661482049,9.749667911,-0.001311502,0.003581423,-0.224836299
14.9,,,,-0.144198834,-1.668266313,9.803011093,-0.001384612,0.00379397,-0.224823526
14.95,,,,-0.159031243,-1.673464297,9.839274545,-0.001144042,0.003034621,-0.224817662
15,316.9936799,-51.26814871,0.676593083,-0.166091203,-1.675842995,9.853452483,-0.000778755,0.001838238,-0.224818384
15.05,,,,-2.193474617,-1.481508038,9.193427575,0.003587763,0.014891422,-0.221664595
15.1,,,,-2.746018344,-1.362159044,9.505413151,0.00434067,0.021601364,-0.218219225
15.15,,,,-2.773023873,-1.274384868,9.945144577,0.002657301,0.018945196,-0.214808985
15.2,,,,-2.852005649,-1.224777814,10.15344049,0.001101817,0.011568412,-0.211407933
15.25,,,,-2.863179222,-1.190979011,10.18022723,0.000797996,0.003246787,-0.208011985
15.3,,,,-2.832111798,-1.155621985,10.07909223,0.001584753,-0.003167842,-0.204620386
15.35,,,,-2.781216464,-1.109584399,9.927945642,0.00267325,-0.006367185,-0.20123001
15.4,,,,-2.730653713,-1.053757684,9.792002307,0.003348904,-0.006454839,-0.197835158
15.45,,,,-2.6939336,-0.99446175,9.707900044,0.003335841,-0.004434301,-0.194429605
15.5,,,,-2.676092594,-0.938120914,9.683108662,0.002786897,-0.001607896,-0.191009896
15.55,,,,-2.674983634,-0.888034211,9.704426166,0.002062723,0.000908738,-0.187576687
15.6,,,,-2.68419825,-0.84391384,9.749496148,0.001493281,0.002455213,-0.1841333
15.65,,,,-2.696338857,-0.803307102,9.796741051,0.001241221,0.00287333,-0.180683285
15.7,,,,-2.705542829,-0.763473521,9.831429038,0.001289547,0.002391804,-0.177228835
15.75,,,,-2.397234714,-0.586476345,9.96531555,0.000533046,-0.001095659,-0.170635211
15.8,,,,-0.836045713,-0.63554251,10.37496469,-0.001372989,-0.013575385,-0.165408915
15.85,,,,-0.107284401,-0.937782491,10.14401511,-0.001151697,-0.021335775,-0.166148243
15.9,,,,-0.056843483,-0.928288217,9.692040867,0.000412419,-0.019300902,-0.166167697
15.95,,,,0.030408369,-0.919013334,9.461572157,0.001420429,-0.011940651,-0.166174682
16,313.3399925,-56.14277323,0.678863691,0.055463494,-0.900469681,9.419481864,0.001167663,-0.003253881,-0.166167419
16.05,,,,2.059958392,-1.084749439,10.16551458,-0.003946968,-0.010500804,-0.169343731
16.1,,,,2.524214456,-1.21492964,9.966560636,-0.00529392,-0.013903815,-0.173330723
16.2,,,,0.02398546,-1.014243962,9.240930404,0.001564485,0.015613381,-0.173904009
16.25,,,,-0.018493035,-0.975638121,9.687006085,0.00038863,0.018648856,-0.173888757
16.3,,,,-0.129718958,-0.96864812,9.986871892,-0.001355383,0.015110973,-0.173873574
16.35,,,,-0.18154265,-0.982650153,10.12805274,-0.002146183,0.008217017,-0.173864155
16.4,,,,-0.185631339,-1.000802864,10.11948481,-0.001689213,0.001189988,-0.173862885
16.45,,,,-0.157156471,-1.010628737,10.01716274,-0.000558663,-0.003791678,-0.173869226
16.5,,,,-0.115380143,-1.009097339,9.885963119,0.000468729,-0.00589567,-0.173879968
16.55,,,,-0.07705921,-1.000268616,9.776202779,0.000906031,-0.005429775,-0.173890092
16.6,,,,-0.052421157,-0.990496898,9.713703263,0.00070265,-0.003369705,-0.173895243
16.65,,,,-0.044383456,-0.984493967,9.700922522,0.000119066,-0.000848719,-0.173894055
16.7,,,,-0.050017962,-0.983705094,9.724629409,-0.000498915,0.001229586,-0.173888333
16.75,,,,-0.063262032,-0.986825483,9.765366921,-0.000900943,0.002384332,-0.173881345
16.8,,,,-0.077719653,-0.99136622,9.805317334,-0.001004157,0.002563941,-0.173875899
16.85,,,,-0.088676862,-0.995136059,9.832923023,-0.000867822,0.002024396,-0.173873356
16.9,,,,-0.093967733,-0.997017432,9.844116056,-0.000619647,0.001155477,-0.173873632
16.95,,,,-0.093803816,-0.996997101,9.840986873,-0.000383043,0.000322301,-0.173875738
17,309.2212964,-59.94977412,0.676712156,-0.089956083,-0.995750648,9.82913518,-0.000233772,-0.000235945,-0.173878412
17.05,,,,1.942900831,-1.190859451,10.46844984,-0.004175681,-0.014627381,-0.177069887
17.1,,,,2.50395767,-1.299772857,10.12444712,-0.004553205,-0.021983086,-0.180563942
17.15,,,,2.540397884,-1.37468491,9.655494572,-0.002715632,-0.019309728,-0.184028621
17.2,,,,2.628700943,-1.41289684,9.42652967,-0.001251159,-0.011477897,-0.187483792
17.25,,,,2.645317371,-1.437593701,9.390060821,-0.00119654,-0.002541601,-0.190921311
17.3,,,,2.614424365,-1.466879471,9.491877899,-0.002270422,0.004413544,-0.194334261
17.35,,,,2.560106256,-1.509903777,9.651413379,-0.003591572,0.007939573,-0.197726986
17.4,,,,2.50526749,-1.565080544,9.79938587,-0.004408569,0.008105824,-0.20110949
17.45,,,,2.26459465,-1.716413922,9.817580002,-0.00379186,0.0076321,-0.206590541
17.5,,,,0.373815753,-1.612998539,9.316456871,-0.000403179,0.0179222,-0.209298036
17.55,,,,-0.143907332,-1.436241039,9.635423055,0.000345976,0.02165618,-0.208905603
17.6,,,,-0.179993147,-1.427533942,10.0248371,-0.000580996,0.017106494,-0.208898306
17.65,,,,-0.244470453,-1.430757644,10.18267768,-0.00135158,0.009002341,-0.208899781
17.7,,,,-0.245687738,-1.443523713,10.16776105,-0.001227906,0.00097542,-0.208910659
17.75,,,,-0.210165681,-1.452845712,10.04356178,-0.000434783,-0.004534861,-0.208926344
17.8,,,,-0.161147951,-1.453031455,9.887884252,0.00039838,-0.006675226,-0.208943948
17.85,,,,-0.117614408,-1.445868638,9.760529863,0.000774865,-0.005902437,-0.208958603
17.9,,,,-0.09079625,-1.436807271,9.690962997,0.000574512,-0.003402588,-0.208965674
17.95,,,,-0.083300337,-1.430734863,9.680370407,6.77E-07,-0.000491547,-0.208963777
18,303.7006848,-63.41187314,0.677451374,-0.091125184,-1.429662129,9.711564818,-0.00062075,0.001821295,-0.208955433
18.05,,,,-2.134673236,-1.237604752,9.105862874,0.002991849,0.017221805,-0.205775893
18.1,,,,-2.709480027,-1.126892421,9.480584642,0.003370498,0.024787569,-0.202298764
18.15,,,,-2.756087692,-1.048991851,9.969812649,0.001712514,0.021717547,-0.198855556
18.2,,,,-2.846728498,-1.007376736,10.20419044,0.00044654,0.013185079,-0.195425125
18.25,,,,-2.860882268,-0.978677085,10.2336897,0.000507767,0.003548578,-0.192002429
18.3,,,,-2.826202531,-0.945992816,10.11878223,0.001582972,-0.003893655,-0.188584461
18.35,,,,-2.768349742,-0.901461316,9.946850845,0.002810245,-0.007613935,-0.185167055
18.4,,,,-2.710642471,-0.847209274,9.791528352,0.003479417,-0.007717745,-0.181744589
18.45,,,,-2.668847773,-0.790323854,9.694694447,0.003367206,-0.005361421,-0.178311414
18.5,,,,-2.64898227,-0.737429992,9.665402788,0.002691241,-0.002057725,-0.17486475
18.55,,,,-2.648669456,-0.691599273,9.689115893,0.001862346,0.000890848,-0.171405761
18.6,,,,-2.660480063,-0.65213138,9.740555034,0.001234803,0.002709298,-0.167937931
18.65,,,,-2.675760159,-0.616195893,9.794987521,0.000971938,0.003208897,-0.16446466
18.7,,,,-2.687621145,-0.580826794,9.83528405,0.001042991,0.002654809,-0.160987884
18.75,,,,-2.692429654,-0.544211112,9.854285736,0.001301956,0.001542518,-0.157507995
18.8,,,,-2.689837462,-0.505990388,9.853484464,0.001583656,0.000377346,-0.154024432
18.85,,,,-2.681830866,-0.466857387,9.839673497,0.001771572,-0.000479192,-0.150536322
18.9,,,,-2.671402003,-0.427905723,9.821207925,0.001822073,-0.000871904,-0.147042948
18.95,,,,-2.66134723,-0.390087365,9.805064333,0.001753111,-0.000833339,-0.143543995
19,298.5903387,-65.3992257,0.671120135,-2.653498355,-0.353935362,9.7952674,0.001615586,-0.000515014,-0.140039572
19.05,,,,-2.648476784,-0.319542488,9.792680305,0.001464403,-0.000104618,-0.136530094
19.1,,,,-2.645884056,-0.286698328,9.795773864,0.001339255,0.000241672,-0.133016095
19.15,,,,-2.644739572,-0.25507305,9.801838822,0.001257663,0.000436245,-0.12949807
19.2,,,,-2.643958141,-0.224367502,9.808152588,0.00121763,0.000464899,-0.125976399
19.25,,,,-2.642710409,-0.194394803,9.812779896,0.001205298,0.000368098,-0.122451346
19.3,,,,-2.640593202,-0.165095798,9.814891948,0.001203317,0.000211632,-0.118923089
19.35,,,,-1.730976302,0.200114971,10.1147203,-0.000757721,-0.006423318,-0.107581824
19.4,,,,-0.88136264,-0.041521104,10.16602744,-0.001327262,-0.014310628,-0.101468616
19.45,,,,-0.027105016,-0.391028755,10.05251634,-0.000873573,-0.019900269,-0.102480026
19.5,,,,0.021679695,-0.365899536,9.661816624,0.000562541,-0.01701158,-0.102538601
19.55,,,,0.087048583,-0.355074506,9.475293508,0.001387834,-0.009811055,-0.102557352
19.6,,,,0.102607167,-0.338084694,9.459784017,0.001074353,-0.0019541,-0.102555011
19.65,,,,0.076059447,-0.32766063,9.558089772,2.67E-05,0.003962056,-0.102546387
19.7,,,,0.030899811,-0.327913527,9.70027539,-0.001030002,0.006779169,-0.102537054
19.75,,,,-0.013105331,-0.335907225,9.827275694,-0.001564357,0.006657363,-0.102530373
19.8,,,,-0.043003519,-0.345633693,9.905688579,-0.001452228,0.00458708,-0.102527371
19.85,,,,-0.054456983,-0.352184377,9.928514116,-0.000904571,0.00182054,-0.102527417
19.9,,,,-0.05006462,-0.353694133,9.90787094,-0.000260348,-0.000586707,-0.102529282
19.95,,,,-0.036252419,-0.351084297,9.864679021,0.000204538,-0.002026424,-0.102531709
20,295.2244584,-66.16852359,0.676724192,-0.020146878,-0.346665097,9.819414014,0.000371818,-0.002374853,-0.102533647
20.05,,,,2.268310977,3.980255898,10.40880972,0.038326596,-0.015536512,-0.041864542
20.1,,,,2.647159463,3.945789548,10.12200321,0.035903347,-0.022873756,0.010411488
20.15,,,,2.523072438,2.956657814,9.653704404,0.012516606,-0.020109763,0.043568191
20.2,,,,2.705561406,2.116222715,9.440906475,-0.008588449,-0.012577823,0.064335481
20.25,,,,2.72800909,1.535986627,9.348758273,-0.017169218,-0.002826399,0.079120472
20.3,,,,2.690649874,1.115959791,9.434586482,-0.014929736,0.005284734,0.08965166
20.35,,,,2.641540322,0.887881621,9.625287906,-0.007869408,0.009348642,0.097468119
20.4,,,,2.58165441,0.806297287,9.815099959,-0.001169526,0.009207077,0.10362387
20.45,,,,2.538551832,0.804870675,9.93984137,0.002753191,0.006155214,0.108765648
20.5,,,,2.521801514,0.831779652,9.977170507,0.003926357,0.002085394,0.113289621
20.55,,,,2.528602056,0.859792175,9.942746268,0.003523167,-0.001354103,0.117434784
20.6,,,,2.54886594,0.882043593,9.871736137,0.002717439,-0.003242915,0.121344578
20.65,,,,2.571114307,0.901896624,9.799716522,0.002152293,-0.003460995,0.125104781
20.7,,,,2.595819538,0.9259494,9.753572784,0.001898951,-0.002536025,0.128832147
20.75,,,,2.357585385,1.046844069,9.640563098,0.001953966,0.00093942,0.134823315
20.8,,,,1.323503334,1.369459435,9.40849633,0.002227455,0.009635153,0.147655542
20.85,,,,1.283503046,1.405763311,9.698781365,0.002356336,0.01226194,0.159490705
20.9,,,,1.21575296,1.479954098,9.9075334,0.002489563,0.010315314,0.17128886
20.95,,,,0.289621331,1.026070658,9.722697439,0.002778917,0.012166129,0.172669183
21,291.0669856,-67.98075296,0.677226411,-0.142483256,0.963243771,9.820764993,0.001249254,0.011871815,0.17231654
21.05,,,,1.895904561,1.237779576,10.64049601,-0.000287032,-0.006273758,0.17567132
21.1,,,,2.42903701,1.255628191,10.35420132,0.00127941,-0.018780197,0.17933948
21.15,,,,2.471958215,1.275381946,9.854686413,0.004181625,-0.020653775,0.182950595
21.2,,,,2.586594703,1.331262955,9.543070273,0.006034202,-0.015539976,0.186508162
21.25,,,,2.634713264,1.402268254,9.414305711,0.006019408,-0.007222238,0.190038967
21.3,,,,2.628925107,1.469525255,9.445889382,0.004581959,0.0007467,0.193564296
21.35,,,,2.587183941,1.523177606,9.571743097,0.002761046,0.006095713,0.197091284
21.4,,,,2.532341683,1.564030078,9.721256251,0.001468589,0.008080344,0.200615527
21.45,,,,2.48386268,1.599109758,9.841788516,0.001105202,0.007198017,0.20412951
21.5,,,,2.452796818,1.635979238,9.907454522,0.00155768,0.004638102,0.20762786
21.55,,,,2.441338419,1.679163138,9.917249235,0.002424489,0.001708735,0.211108624
21.6,,,,2.445155542,1.729410271,9.886787894,0.003278576,-0.00058732,0.214572775
21.65,,,,2.456799178,1.784838949,9.838189967,0.003841628,-0.00175259,0.218023136
21.7,,,,2.468860301,1.842651619,9.791543031,0.00403467,-0.001783068,0.221462972
21.75,,,,2.47610942,1.900503001,9.759791915,0.003934763,-0.001014427,0.22489464
21.8,,,,2.476355018,1.957162228,9.747344321,0.003691434,8.42E-05,0.228318892
21.85,,,,2.470159217,2.012522506,9.751562372,0.003449075,0.001091962,0.231735004
21.9,,,,2.459824542,2.067214721,9.765782753,0.00330038,0.00174668,0.235141455
21.95,,,,2.448166821,2.122113383,9.782524153,0.00327495,0.001974253,0.238536636
22,285.5339836,-71.79448533,0.682414328,1.72512419,2.438064652,9.555282426,0.003386505,0.007075761,0.248306923
22.05,,,,-1.922266151,1.786078915,8.607808955,0.003360974,0.032971644,0.245485309
22.1,,,,-2.760421769,1.748194493,9.347290688,-0.001808681,0.043622813,0.241704509
22.15,,,,-2.862489722,1.711051201,10.15661528,-0.007193048,0.036777354,0.23828543
22.2,,,,-3.00805684,1.606222266,10.52399489,-0.009124633,0.021331362,0.234918464
22.25,,,,-3.023538222,1.494535225,10.54255547,-0.007397566,0.004690619,0.231552913
22.3,,,,-2.958877556,1.406837365,10.32564954,-0.003785613,-0.00773873,0.22815847
22.35,,,,-2.858418322,1.350757678,10.02384448,-0.000443842,-0.013609911,0.224723375
22.4,,,,-2.761267636,1.316634836,9.759475467,0.001270177,-0.013310417,0.221255154
22.45,,,,-2.693297664,1.288581657,9.599519682,0.001141938,-0.008935777,0.217772092
22.5,,,,-2.663843122,1.253788071,9.555828201,-0.000204718,-0.003109457,0.214288893
22.55,,,,-2.667976568,1.207014279,9.601561193,-0.001863862,0.001960682,0.210809523
22.6,,,,-2.692272459,1.150112719,9.692854728,-0.003113595,0.004997109,0.207329861
22.65,,,,-2.721517895,1.088640983,9.787521908,-0.00363136,0.005731133,0.203843818
22.7,,,,-2.743905486,1.028217867,9.856655806,-0.003470471,0.004662241,0.200347229
22.75,,,,-2.753488972,0.97232496,9.888455778,-0.002903009,0.002668384,0.1968386
22.8,,,,-2.750048756,0.921857286,9.885904165,-0.002243203,0.000627102,0.193318349
22.85,,,,-2.737307441,0.875828415,9.861010542,-0.001724375,-0.000844851,0.189787891
22.9,,,,-2.720582553,0.832448087,9.828376097,-0.001451314,-0.001493409,0.186248919
22.95,,,,-2.704727715,0.790025341,9.80012224,-0.001413687,-0.001389564,0.182702876
23,280.9529419,-76.65629224,0.671143534,-2.692849083,0.747471791,9.783181721,-0.001531318,-0.000806673,0.179150664
23.05,,,,1.373842947,1.214132384,11.07094885,-0.001229885,-0.028082211,0.1821927
23.1,,,,2.480937924,1.240699352,10.43959375,0.003074139,-0.042481416,0.185860949
23.15,,,,2.541741021,1.272472237,9.546797229,0.007836638,-0.03773216,0.189447583
23.2,,,,2.718976114,1.35863944,9.105889109,0.009524518,-0.023012777,0.192976439
23.25,,,,2.760707857,1.454724152,9.024201388,0.007831757,-0.005930643,0.196501289
23.3,,,,2.709423605,1.530811915,9.205974105,0.004341289,0.007596032,0.200047483
23.35,,,,2.609772867,1.577796408,9.503876803,0.001084709,0.014666985,0.203609031
23.4,,,,2.50659474,1.604597083,9.788053344,-0.000604033,0.015256773,0.207167535
23.45,,,,2.431107388,1.626971989,9.978238171,-0.000470596,0.011277355,0.210709203
23.5,,,,1.012056822,1.308929996,9.585935526,0.000614941,0.015445686,0.208351997
23.55,,,,-0.192165817,1.410933331,9.556682095,0.000179532,0.020500524,0.208663664
23.6,,,,-0.168449192,1.409746519,9.97411434,-0.001066942,0.016829612,0.208610673
23.65,,,,-0.232648599,1.400634317,10.15007639,-0.001578218,0.009390002,0.208582831
23.7,,,,-0.24107418,1.385208845,10.1572143,-0.000993231,0.001682673,0.20856634
23.75,,,,-0.210367546,1.375460438,10.05184405,0.000241925,-0.003860367,0.208553311
23.8,,,,-0.164404759,1.375838246,9.905792087,0.001409384,-0.006257372,0.208538326
23.85,,,,-0.121629399,1.384002999,9.77882788,0.001993545,-0.005805793,0.208521849
23.9,,,,-0.093846236,1.39438684,9.70346127,0.001881207,-0.003563684,0.208507995
23.95,,,,-0.084583113,1.401998123,9.684951558,0.001292656,-0.000782083,0.2085002
24,277.687052,-82.04209129,0.677448573,-0.090695605,1.404551754,9.709467116,0.000581374,0.001531112,0.208498896
24.05,,,,-2.135200023,1.149281325,9.110319663,-0.000233725,0.016821168,0.205223662
24.1,,,,-2.705748272,1.105494032,9.474092671,-0.002820173,0.024535968,0.201651749
24.15,,,,-2.750380072,1.056859389,9.956086223,-0.005274363,0.021756026,0.198121499
24.2,,,,-2.842324659,0.982809994,10.19195827,-0.005903511,0.013468439,0.194609382
24.25,,,,-2.859039813,0.907926083,10.22929554,-0.004709553,0.003913088,0.191097563
24.3,,,,-2.826516118,0.846673458,10.12322596,-0.00262987,-0.003620513,0.187576677
24.35,,,,-2.769521301,0.802222248,9.956727596,-0.000770509,-0.007532157,0.184042096
24.4,,,,-2.711316924,0.769226508,9.801790176,0.000176687,-0.007829109,0.180495347
24.45,,,,-2.668168637,0.739339918,9.701334001,0.000111083,-0.005592923,0.176941542
24.5,,,,-2.64677679,0.705956314,9.666857174,-0.000628674,-0.002308819,0.173384924
24.55,,,,-2.645322633,0.666439344,9.686211316,-0.001550623,0.000703621,0.169826538
24.6,,,,-2.656640344,0.621829942,9.735504881,-0.002255379,0.002626705,0.166264956
24.65,,,,-2.672038183,0.575110833,9.790161605,-0.002555509,0.003226101,0.16269819
24.7,,,,-2.684394567,0.529333966,9.832302246,-0.002469559,0.002735289,0.159124945
24.75,,,,-2.689788296,0.486451181,9.853668981,-0.00214197,0.001638849,0.155544859
24.8,,,,-2.687639672,0.447028421,9.854805536,-0.001747909,0.000449704,0.151958224
24.85,,,,-2.679815292,0.410578942,9.841988047,-0.001423325,-0.000452282,0.148365656
24.9,,,,-2.669302462,0.376128646,9.82352368,-0.001234583,-0.000891764,0.144767849
24.95,,,,-2.658975976,0.342718194,9.806677728,-0.001182275,-0.000886238,0.141165415
25,275.8362174,-86.99370451,0.671115637,-2.650782973,0.309702348,9.795900738,-0.001224537,-0.000580542,0.137558786
25.05,,,,-2.645452925,0.276835073,9.792440717,-0.001304932,-0.000163798,0.133948216
25.1,,,,-2.642657976,0.244200475,9.795004729,-0.001374602,0.000200966,0.130333837
25.15,,,,-2.641439482,0.21207077,9.800943942,-0.001404215,0.000417448,0.126715746
25.2,,,,-2.640691827,0.180760799,9.807455278,-0.001385993,0.000464069,0.12309406
25.25,,,,-2.639540153,0.150522086,9.812448681,-0.001328789,0.000377108,0.119468941
25.3,,,,-2.637530939,0.121491828,9.814934834,-0.001250043,0.000221762,0.115840593
25.35,,,,-2.634636498,0.093691544,9.814970937,-0.001167927,6.36E-05,0.112209241
25.4,,,,-2.631130369,0.067058759,9.813317676,-0.001095823,-5.14E-05,0.108575118
25.45,,,,-2.006413198,-0.182440564,10.02539042,-0.000872589,-0.004727883,0.099290466
25.5,,,,-1.235487765,-0.27431974,10.09791881,-0.000639364,-0.011096529,0.088219686
25.55,,,,-0.156207341,0.289586118,10.14606833,-0.000108088,-0.018629529,0.089291437
25.6,,,,0.019641254,0.237284179,9.774133493,0.001625483,-0.018177304,0.089485085
25.65,,,,0.074889944,0.239943537,9.524684965,0.002705076,-0.012119752,0.089515291
25.7,,,,0.109021744,0.259304398,9.460588851,0.002390411,-0.00436358,0.089516574
25.75,,,,0.094196205,0.274077226,9.525520156,0.00107536,0.00221058,0.089514749
25.8,,,,0.054102569,0.276722443,9.655346155,-0.000392588,0.006007385,0.089515708
25.85,,,,0.009136276,0.268929846,9.78778304,-0.001309957,0.006790617,0.089517544
25.9,,,,-0.025557169,0.257214677,9.881943372,-0.001423202,0.005299957,0.089518388
25.95,,,,-0.042954362,0.247825941,9.922733076,-0.000902919,0.002711524,0.089517869
26,275.1818745,-89.99889291,0.676283943,-0.043507103,0.243922961,9.916126479,-0.000130477,0.000148998,0.089516364
26.05,,,,1.997304095,0.502240389,10.52419467,0.000646977,-0.015632078,0.0928307
26.1,,,,2.567096237,0.527676812,10.15832701,0.002783551,-0.023866836,0.096462837
26.15,,,,2.614218955,0.551601266,9.666077747,0.004807008,-0.021455632,0.100078242
26.2,,,,2.713215977,0.599591026,9.416579478,0.005205775,-0.013330551,0.103688046
26.25,,,,2.737363196,0.64907108,9.367038463,0.003992967,-0.003756238,0.107302614
26.3,,,,2.709458376,0.687002504,9.465707687,0.002040242,0.003908302,0.110923272
26.35,,,,2.654130447,0.710640712,9.631166339,0.00037164,0.007979164,0.114544707
26.4,,,,2.596135509,0.725546239,9.790600294,-0.000384028,0.00839546,0.118160694
26.45,,,,2.553005823,0.739975254,9.898383288,-0.000158939,0.006205957,0.12176808
26.5,,,,2.53192904,0.760110119,9.939823109,0.000702054,0.002900359,0.12536657
26.55,,,,2.53114044,0.788133428,9.924774152,0.001716719,-0.000173354,0.128957167
26.6,,,,2.543438159,0.822795488,9.876395893,0.002500216,-0.002163709,0.132541332
26.65,,,,2.560047488,0.86115368,9.819926701,0.002877143,-0.002811483,0.136120612
26.7,,,,2.573662178,0.900287735,9.774650138,0.002872909,-0.002340063,0.139696196
26.75,,,,2.58011751,0.938346524,9.750258922,0.002634051,-0.001237228,0.143268472
26.8,,,,2.578650967,0.974807953,9.747179462,0.002334605,-2.67E-05,0.146836964
26.85,,,,2.571085602,1.010167709,9.759454283,0.002107801,0.000899401,0.150400662
26.9,,,,2.560487602,1.045392775,9.778527795,0.002017166,0.001357254,0.153958477
26.95,,,,2.549858119,1.081426164,9.79656771,0.002061433,0.001361187,0.157509553
27,274.7411033,-94.07624569,0.682683084,2.541248602,1.118893743,9.808522708,0.002198315,0.001057848,0.161053365
27.05,,,,-1.523672891,0.648775037,8.527604589,0.001929847,0.028605915,0.158014315
27.1,,,,-2.637891719,0.623868575,9.166334753,-0.002207798,0.043239729,0.154377213
27.15,,,,-2.708168028,0.594312749,10.06414579,-0.006739705,0.03866471,0.150800079
27.2,,,,-2.882537245,0.512757597,10.50429157,-0.008216336,0.023999051,0.14724144
27.25,,,,-2.918300508,0.426779414,10.57918239,-0.006366342,0.006872663,0.143688178
27.3,,,,-2.865656433,0.363857567,10.38823797,-0.002774972,-0.006733774,0.140134193
27.35,,,,-2.769051862,0.3306056,10.08455531,0.000538174,-0.013876231,0.136569665
27.4,,,,-2.669547873,0.317791826,9.80121098,0.002254088,-0.014517412,0.132991729
27.45,,,,-2.596169213,0.310315111,9.617284219,0.002136282,-0.010570302,0.129406228
27.5,,,,-2.281523153,0.492575422,9.658284998,0.000678614,-0.006940529,0.129741622
27.55,,,,-0.442527329,0.639767052,10.18979091,-0.000150622,-0.014603908,0.131700356
27.6,,,,-0.008859989,0.523312025,9.934438844,0.000763054,-0.01706218,0.131340873
27.65,,,,0.009716687,0.533846349,9.619964536,0.001929981,-0.012932424,0.131344798
27.7,,,,0.060686468,0.546759642,9.498334928,0.002193058,-0.00617824,0.131346647
27.75,,,,0.059931138,0.561615149,9.515067746,0.001452226,0.000314468,0.131353808
27.8,,,,0.029490092,0.568529456,9.618411716,0.000254857,0.004655076,0.131362891
27.85,,,,-0.011365325,0.565600402,9.745791205,-0.000729067,0.006231267,0.131372198
27.9,,,,-0.046831508,0.556681523,9.849397853,-0.001103398,0.005465658,0.13137969
27.95,,,,-0.06793418,0.547406142,9.905655264,-0.000857904,0.003345084,0.131384295
28,274.8432114,-98.51683535,0.676324031,-0.073044629,0.541807656,9.913652202,-0.000252807,0.000941655,0.131386004
28.05,,,,1.963919571,0.796990128,10.53139152,0.000557604,-0.01493073,0.13469311
28.1,,,,2.530699109,0.827688766,10.16927942,0.002984694,-0.023392584,0.138311575
28.15,,,,2.576390237,0.860512944,9.676536743,0.005327948,-0.021237612,0.141901249
28.2,,,,2.675256084,0.919312914,9.423672612,0.00594941,-0.013312517,0.14547546
28.25,,,,2.699946184,0.980714352,9.36964044,0.004829859,-0.003837741,0.149050726
28.3,,,,2.672608091,1.030559289,9.464243757,0.002865611,0.003829151,0.152632513
28.35,,,,2.617401632,1.065465032,9.627042511,0.00112773,0.007974937,0.156216614
28.4,,,,2.558902653,1.09081,9.785527348,0.000289056,0.008496519,0.159795513
28.45,,,,2.514719376,1.114994283,9.893803185,0.000446717,0.006404188,0.163363925
28.5,,,,2.492260735,1.144492115,9.936573832,0.001268718,0.003163471,0.166919871
28.55,,,,2.490010813,1.181778434,9.923025584,0.002272736,0.00011547,0.17046369
28.6,,,,2.500961662,1.22580989,9.875799755,0.003066098,-0.001881158,0.173997108
28.65,,,,2.516440341,1.273735353,9.819874228,0.003462833,-0.002552476,0.177522452
28.7,,,,2.52915057,1.322624663,9.774529111,0.003478885,-0.002106455,0.181041743
28.75,,,,2.53487101,1.370553401,9.749634151,0.003254602,-0.001019658,0.184555937
28.8,,,,2.532752493,1.416907236,9.74586648,0.002961592,0.000189058,0.18806474
28.85,,,,2.524536312,1.462105598,9.757496462,0.00273363,0.001126801,0.191567004
28.9,,,,2.513235283,1.507071438,9.776112279,0.002636462,0.001604954,0.195061331
28.95,,,,2.50183345,1.552734593,9.793923373,0.002671566,0.001632116,0.198546533
29,275.7940573,-103.8503816,0.682663839,2.49239556,1.599728452,9.805836483,0.002799195,0.001350157,0.202021834
29.05,,,,2.485731931,1.648304786,9.81009657,0.002965527,0.000950112,0.205486865
29.1,,,,2.48154674,1.698403352,9.807755173,0.003123683,0.000599368,0.208941551
29.15,,,,2.478872794,1.749785937,9.80148295,0.003244794,0.000398578,0.212385977
29.2,,,,2.476572257,1.802164434,9.794275238,0.003320039,0.0003721,0.215820235
29.25,,,,2.473732692,1.855291113,9.78846419,0.003356676,0.000484443,0.21924432
29.3,,,,2.469872171,1.90900905,9.785234776,0.003371079,0.000669651,0.222658061
29.35,,,,2.464950923,1.963269066,9.78463137,0.003381188,0.00086069,0.226061133
29.4,,,,2.138523047,2.146386196,9.668853515,0.003335798,0.003539283,0.232651196
29.45,,,,1.174815695,2.477058238,9.47490125,0.003901731,0.010566281,0.245341071
29.5,,,,0.173573583,1.978141885,9.434661493,0.004020595,0.018699225,0.245798224
29.55,,,,-0.203723201,1.980372466,9.754238734,0.001354955,0.020108972,0.2455706
29.6,,,,-0.249984372,1.995676441,10.05626098,-0.001330387,0.014859713,0.2456633
29.65,,,,-0.295223414,1.970697446,10.15561206,-0.002258197,0.007142755,0.245765882
29.7,,,,-0.287846637,1.943206068,10.11176992,-0.00143244,9.31E-05,0.245846404
29.75,,,,-0.250954187,1.928411116,9.988298163,0.000200894,-0.004384134,0.245891472
29.8,,,,-0.205485775,1.929067377,9.851161702,0.001606209,-0.00579074,0.245905455
29.85,,,,-0.167607776,1.939365477,9.7465664,0.002205839,-0.004708358,0.245901613
29.9,,,,-0.146084156,1.951214319,9.694406404,0.001983418,-0.002265685,0.245893984
29.95,,,,-0.142047421,1.958829937,9.692080104,0.001285153,0.000372827,0.245891182
30,278.558608,-110.8931754,0.67735533,-0.151100835,1.960405662,9.723311353,0.000537004,0.002359704,0.245895013
30.05,,,,-2.196238203,1.706156855,9.123020601,-0.000283174,0.01729741,0.24264833
30.1,,,,-2.76513081,1.656934796,9.481343203,-0.00297787,0.024739056,0.239120056
30.15,,,,-2.80724347,1.601182361,9.956456149,-0.005550327,0.021820264,0.235655762
30.2,,,,-2.896730665,1.518912316,10.1868981,-0.006271529,0.013522412,0.232222549
30.25,,,,-2.911532926,1.434744912,10.22152524,-0.005136003,0.004042368,0.228791561
30.3,,,,-2.877792746,1.363702451,10.1153489,-0.003082708,-0.003384511,0.225346949
30.35,,,,-2.820191027,1.309418331,9.950444719,-0.001223369,-0.007203391,0.221882362
30.4,,,,-2.761770039,1.266847814,9.797717062,-0.000258456,-0.007447738,0.218400826
30.45,,,,-2.718532648,1.227733232,9.699232884,-0.000298943,-0.005204905,0.214909904
30.5,,,,-2.696951694,1.185383647,9.666036676,-0.001015659,-0.001950529,0.211415599
30.55,,,,-2.695071573,1.136996523,9.685901636,-0.001922782,0.001012996,0.207919436
30.6,,,,-2.705696788,1.083457634,9.735107472,-0.002622846,0.002885342,0.204419447
30.65,,,,-2.720191341,1.027659774,9.789352529,-0.002926895,0.003444609,0.200912671
30.7,,,,-2.731531862,0.972637058,9.831018924,-0.002850095,0.002929729,0.197396957
30.75,,,,-2.735894789,0.920371802,9.852030455,-0.002533144,0.001824379,0.193871476
30.8,,,,-2.732768594,0.871478553,9.85301419,-0.002148137,0.0006365,0.190336467
30.85,,,,-2.724047998,0.825516093,9.840245964,-0.001829195,-0.000260377,0.186792759
30.9,,,,-2.71271293,0.781543155,9.82197918,-0.001642289,-0.000696342,0.183241355
30.95,,,,-2.701608565,0.738618135,9.805403681,-0.001588858,-0.000692128,0.179683141
31,282.2336881,-116.2555701,0.67109587,-2.692645633,0.69609922,9.794898378,-0.001628595,-0.000393358,0.176118726
31.05,,,,1.373226052,1.163967216,11.08374201,-0.001240022,-0.027995187,0.179157149
31.1,,,,2.481261697,1.190557918,10.44950192,0.003106469,-0.042653415,0.182826823
31.15,,,,2.543826297,1.222206735,9.5518423,0.007880093,-0.038038482,0.186420949
31.2,,,,2.722942986,1.308064507,9.106206826,0.009554561,-0.023327924,0.189961613
31.25,,,,2.766112069,1.403554166,9.021272739,0.007831791,-0.006166341,0.193500317
31.3,,,,2.71551879,1.478775567,9.20174555,0.004305611,0.007476406,0.197060756
31.35,,,,2.615835581,1.524691583,9.500059456,0.001018691,0.014653816,0.20063616
31.4,,,,2.5121528,1.550339077,9.785716738,-0.000687657,0.015311464,0.20420818
31.45,,,,2.436008877,1.571592716,9.977705191,-0.000557598,0.011352697,0.207763573
31.5,,,,2.399790904,1.601094993,10.05050055,0.000834022,0.005444213,0.211297115
31.55,,,,2.399802486,1.643977217,10.02233503,0.002604339,-1.69E-05,0.214808857
31.6,,,,2.422923684,1.698678844,9.934984886,0.004019624,-0.003527435,0.218302282
31.65,,,,2.453507701,1.760127372,9.833677362,0.004722319,-0.004640933,0.221783034
31.7,,,,1.503857876,1.503949971,9.413701175,0.004578535,0.003582357,0.219546292
31.75,,,,-0.070012837,1.594585315,9.161877166,0.002121049,0.017798671,0.219870202
31.8,,,,-0.085513738,1.597390992,9.677373202,-0.001241169,0.021255959,0.219832799
31.85,,,,-0.191854898,1.579319647,10.01271743,-0.003214496,0.017318856,0.219810423
31.9,,,,-0.254171869,1.550168972,10.16424318,-0.003109551,0.009663781,0.219802861
31.95,,,,-0.259463229,1.527827651,10.1541216,-0.001509287,0.001785071,0.21979635
32,286.8456846,-120.6284733,0.675242987,-0.228292563,1.520727318,10.04115205,0.000484972,-0.003878372,0.219783302
32.1,,,,-2.720962291,1.247329095,9.445359891,-0.000260502,0.015567952,0.212905304
32.15,,,,-2.724284098,1.213829737,9.823451283,-0.003177524,0.015642281,0.209376017
32.2,,,,-2.801043406,1.14732153,10.02968672,-0.00487708,0.011162969,0.205878415
32.25,,,,-2.824296107,1.071216677,10.0956739,-0.004790783,0.004929322,0.202387722
32.35,,,,-2.775722072,0.948561732,9.943784886,-0.001882422,-0.004033934,0.195378239
32.4,,,,-2.734988297,0.906720781,9.833986785,-0.000799631,-0.005021819,0.191852823
32.45,,,,-2.701063684,0.870479412,9.754203747,-0.000502999,-0.004078483,0.188317919
32.5,,,,-2.680379806,0.833525356,9.717862927,-0.000845395,-0.002114036,0.18477784
32.6,,,,-2.676627512,0.747386618,9.748527459,-0.002037363,0.001472939,0.177687438
32.65,,,,-2.684418932,0.700066023,9.784622517,-0.002346798,0.002158622,0.174135111
32.7,,,,-2.691759449,0.65296176,9.815664783,-0.002365894,0.002064546,0.17057622
32.75,,,,-2.695343522,0.607823476,9.834287343,-0.002176135,0.001458414,0.167010184
32.8,,,,-2.694047785,0.565360376,9.839192581,-0.001900988,0.000676068,0.16343709
32.85,,,,-2.688570638,0.525408002,9.833489041,-0.001647279,7.07E-07,0.159857429
32.9,,,,-2.680652752,0.487338812,9.822335971,-0.001475836,-0.000404734,0.156271831
32.95,,,,-2.672237836,0.450458325,9.810785638,-0.001399234,-0.000508507,0.152680882
33,291.6152541,-123.6531571,0.671076355,-2.664835139,0.414256336,9.802364499,-0.001396017,-0.000378597,0.149085032
33.05,,,,-2.659206905,0.378494667,9.79855167,-0.001429969,-0.000131331,0.145484578
33.1,,,,-2.655373348,0.343175417,9.799011075,-0.001466394,0.000118437,0.14187971
33.15,,,,-2.652837113,0.308450645,9.802268865,-0.001481797,0.000291207,0.138270566
33.2,,,,-2.650893193,0.274524148,9.806501447,-0.001466762,0.000355586,0.134657289
33.25,,,,-2.648905029,0.241575785,9.810174628,-0.001423825,0.000322675,0.131040051
33.3,,,,-2.64647418,0.209719836,9.812398223,-0.001362753,0.000229482,0.127419056
33.35,,,,-2.643485642,0.178995597,9.812983559,-0.0012954,0.000119738,0.123794531
33.4,,,,-2.640054032,0.149381328,9.8122798,-0.001231658,2.87E-05,0.120166712
33.45,,,,-2.636417788,0.12082021,9.810904784,-0.001177249,-2.48E-05,0.116535834
33.5,,,,-2.632829312,0.093247803,9.80948084,-0.001133375,-3.89E-05,0.112902123
33.55,,,,-2.391572863,-0.030051201,9.897361951,-0.000999397,-0.001935328,0.106828462
33.6,,,,-1.375349697,-0.329753974,10.13654229,-0.000793682,-0.009076306,0.093969966
33.65,,,,-0.682915789,0.078189083,10.10379287,-0.000540008,-0.015641199,0.090344031
33.7,,,,0.013458959,0.276705271,9.943842687,0.000766145,-0.018854447,0.091101188
33.75,,,,0.044773707,0.243582778,9.609454537,0.002298589,-0.014736021,0.091151517
33.8,,,,0.09796002,0.259791753,9.47716409,0.002614244,-0.007469586,0.091162169
33.85,,,,0.101211227,0.277672354,9.493824706,0.001685578,-0.000292481,0.091159165
33.9,,,,0.069914127,0.285860388,9.601735629,0.000223505,0.004663647,0.091158262
33.95,,,,0.025855302,0.282196121,9.736193498,-0.000963461,0.006632505,0.091159525
34,294.6294607,-124.9660839,0.676983026,-0.013569889,0.271635956,9.847166548,-0.001418074,0.005992878,0.091160664
34.05,,,,1.991845111,0.517819308,10.55364946,-0.001024555,-0.010223266,0.09447694
34.1,,,,2.539205523,0.532882022,10.24440515,0.001466038,-0.020370061,0.098110388
34.15,,,,2.578706055,0.551593554,9.764561451,0.004210765,-0.02030935,0.10172546
34.2,,,,2.682467065,0.599805311,9.494505275,0.0053145,-0.014133968,0.105332179
34.25,,,,2.71879385,0.653197744,9.40836156,0.004546461,-0.005654438,0.108941941
34.3,,,,2.704592197,0.696232035,9.470226998,0.002713904,0.001827947,0.112558398
34.35,,,,2.658235526,0.724784126,9.60876493,0.000912073,0.006411236,0.11619497
34.4,,,,1.053886336,0.736666934,9.247939373,-7.04E-05,0.01871833,0.121455783
34.45,,,,-0.028149256,0.460607312,9.440169384,-0.001385178,0.027058823,0.120861781
34.5,,,,-0.06541677,0.489560318,9.985504575,-0.003035152,0.023586492,0.120844392
34.55,,,,-0.16473608,0.469323095,10.24743231,-0.003273804,0.014114346,0.120838904
34.6,,,,-0.186835636,0.446942532,10.28427891,-0.001986427,0.003455283,0.120839643
34.65,,,,-0.153024356,0.435751992,10.16188244,3.06E-05,-0.004779845,0.120839439
34.7,,,,-0.093164004,0.439225797,9.97287102,0.001764848,-0.008887857,0.120835966
34.75,,,,-0.033123971,0.452469177,9.798232692,0.00256553,-0.008966235,0.120830195
34.8,,,,0.009238764,0.467411956,9.685987848,0.002349362,-0.006287881,0.120825362
34.85,,,,0.026919718,0.477552871,9.648628366,0.001470269,-0.002538091,0.120823912
34.9,,,,0.022444983,0.480332473,9.671975687,0.000437589,0.000819397,0.120825793
34.95,,,,0.004183244,0.476940106,9.728701525,-0.000336799,0.002904988,0.12082923
35,298.086304,-126.0509014,0.677159691,-0.018003192,0.470563461,9.790870702,-0.000664979,0.003497431,0.120832388
35.05,,,,1.993572538,0.720666262,10.48222922,-0.00041582,-0.011105886,0.124144642
35.1,,,,2.537367153,0.74303983,10.18459507,0.001874387,-0.019863956,0.127770165
35.15,,,,2.568211959,0.768254231,9.730782895,0.004437096,-0.018986736,0.131369723
35.2,,,,2.662075409,0.82185045,9.488136268,0.005454583,-0.012626944,0.134954795
35.25,,,,2.690317382,0.880591131,9.421974535,0.004719969,-0.004445322,0.138539827
35.3,,,,2.671533315,0.929629976,9.492920267,0.003005426,0.002502133,0.142130395
35.35,,,,2.625778766,0.964441564,9.631194799,0.001343841,0.006537527,0.145723493
35.4,,,,2.574494828,0.989377598,9.771789189,0.000439853,0.007399788,0.149312559
35.45,,,,2.533855576,1.012270865,9.872000562,0.000457663,0.005855289,0.152892655
35.5,,,,2.51143383,1.03952327,9.915841556,0.001133586,0.003139377,0.156461804
35.55,,,,2.506884009,1.073867123,9.909329183,0.002032767,0.000441534,0.160020187
35.6,,,,2.514686618,1.1146394,9.871156339,0.002781556,-0.001431419,0.163569213
35.65,,,,2.527436088,1.159336614,9.822983778,0.003188269,-0.002173011,0.1671108
35.7,,,,2.538584443,1.205257598,9.782195021,0.00324823,-0.001910368,0.170646621
35.75,,,,2.544080299,1.250560907,9.758305461,0.00307736,-0.001030309,0.174177488
35.8,,,,2.54279047,1.294587534,9.752805338,0.002827813,1.71E-05,0.177703185
35.85,,,,2.535940418,1.337635105,9.761341614,0.002623475,0.00087281,0.18122276
35.9,,,,2.526022169,1.380490671,9.776859863,0.002529841,0.001347399,0.184735015
35.95,,,,2.471063454,1.44368646,9.775256994,0.002533691,0.00179698,0.188733616
36,303.0972709,-126.9097526,0.682138386,1.374884083,1.804419799,9.458069794,0.002787235,0.009132036,0.200537366
36.05,,,,-1.90856041,1.026433968,8.699541084,0.002508019,0.033216333,0.196964792
36.1,,,,-2.704421483,1.021072231,9.42767362,-0.002262764,0.042232616,0.193191776
36.15,,,,-2.804627636,0.98447775,10.19359642,-0.006946217,0.03464114,0.189670946
36.2,,,,-2.937963982,0.890734376,10.52584707,-0.008301217,0.019201264,0.186176681
36.25,,,,-2.94656334,0.795183062,10.52171424,-0.006312063,0.003080987,0.182680435
36.3,,,,-2.879938028,0.724902494,10.29742722,-0.002748041,-0.008635302,0.179167099
36.35,,,,-2.78154081,0.684745734,10.00035621,0.00036209,-0.013873849,0.175629144
36.4,,,,-2.688839138,0.663964303,9.747107763,0.001812324,-0.01318109,0.172070324
36.45,,,,-2.625926715,0.647036177,9.599050246,0.00149702,-0.008688145,0.168501885
36.5,,,,-2.600734943,0.622291822,9.564167016,8.12E-05,-0.002960814,0.164932792
36.55,,,,-2.607600809,0.585669786,9.614007805,-0.001545428,0.001896501,0.161364916
36.6,,,,-2.63306374,0.539753126,9.705029867,-0.002707033,0.004710249,0.157795328
36.65,,,,-2.662372366,0.490266161,9.79654113,-0.003129385,0.005285404,0.154220581
36.7,,,,-2.684371373,0.442589687,9.861476299,-0.002898974,0.004152653,0.150638876
36.75,,,,-2.693691888,0.399812547,9.889575756,-0.002300641,0.002182841,0.147049971
36.8,,,,-2.690468389,0.362480809,9.884713025,-0.001644522,0.0002223,0.143454437
36.85,,,,-2.678524989,0.32939912,9.859090496,-0.001150489,-0.001150618,0.13985315
36.9,,,,-2.663081646,0.29871783,9.826974492,-0.000908017,-0.001713679,0.136247032
36.95,,,,-2.648787146,0.268796571,9.799894064,-0.000894888,-0.001555675,0.132636861
37,308.1169411,-126.9408252,0.671176017,-2.638528552,0.238651849,9.784190161,-0.001024907,-0.000952832,0.129023124
37.05,,,,-2.633120006,0.208019828,9.780849654,-0.001197773,-0.00022785,0.125406028
37.1,,,,-2.631699471,0.177172193,9.786933412,-0.001334677,0.000361024,0.121785606
37.15,,,,-2.63250516,0.146639878,9.79767934,-0.001394369,0.000677121,0.118161865
37.2,,,,-2.6336838,0.116963168,9.808464302,-0.001372363,0.000708338,0.114534877
37.25,,,,-2.633875979,0.088530835,9.816107367,-0.001289745,0.000531908,0.110904794
37.3,,,,-2.632470157,0.061520375,9.819346293,-0.0011785,0.000263393,0.107271828
37.35,,,,-2.629552357,0.035918669,9.818607422,-0.001068671,1.01E-05,0.103636214
37.4,,,,-2.625662448,0.011588825,9.815354745,-0.000980294,-0.000158618,0.099998192
37.45,,,,-2.621490892,-0.01165054,9.811337403,-0.000920773,-0.00022017,0.096357988
37.5,,,,-2.617625177,-0.033958942,9.807986379,-0.000886693,-0.000191068,0.092715809
37.55,,,,-2.468879652,-0.116663386,9.861443998,-0.000799838,-0.001298929,0.087528178
37.6,,,,-1.406257349,-0.442367448,10.1439673,-0.000546427,-0.008566136,0.074666855
37.65,,,,-0.810699556,-0.10162893,10.08638913,-0.00025183,-0.014732986,0.069505261
37.7,,,,0.017721522,0.184641748,9.988811962,0.000770321,-0.018906703,0.070475416
37.75,,,,0.049471693,0.140372712,9.635988833,0.002196159,-0.015387597,0.070545737
37.8,,,,0.105786121,0.154324967,9.48427491,0.002535265,-0.0083146,0.07056852
37.85,,,,0.114361263,0.171269788,9.487047017,0.001669671,-0.001020076,0.070571613
37.9,,,,0.085810266,0.179616694,9.587990128,0.000242029,0.0042282,0.070573646
37.95,,,,0.042341603,0.176495311,9.722221525,-0.000959669,0.006517168,0.070576062
38,310.7447888,-126.6000952,0.677054719,0.001865018,0.166288566,9.83732716,-0.001459231,0.006120125,0.070577427
38.05,,,,2.00549344,0.412823873,10.54956978,-0.001140566,-0.009980006,0.073896699
38.1,,,,2.551522242,0.424101081,10.24543266,0.001221274,-0.020134357,0.077534785
38.15,,,,2.59026902,0.437598829,9.768498796,0.003868928,-0.020160831,0.081158376
38.2,,,,2.693980618,0.480226525,9.499217758,0.004933603,-0.014100952,0.084777194
38.25,,,,2.730921309,0.527949746,9.41231365,0.004172264,-0.005723252,0.088400411
38.3,,,,2.717764009,0.565532818,9.4726445,0.002367678,0.001695317,0.092030213
38.35,,,,2.674154708,0.588227613,9.610162632,0.000595261,0.006245364,0.095662226
38.4,,,,2.622333329,0.600525621,9.756781175,-0.000394691,0.007495493,0.099290356
38.45,,,,2.579842582,0.61062191,9.865783972,-0.000411917,0.006133521,0.102911214
38.5,,,,2.555572682,0.625268658,9.917707276,0.000279672,0.003402088,0.106524408
38.55,,,,2.550060745,0.647382293,9.916447621,0.001226006,0.000554611,0.110130957
38.6,,,,2.506372752,0.699061589,9.860064863,0.002003239,-0.001086774,0.114305582
38.65,,,,1.116484467,0.827715519,9.371593508,0.00249339,0.008002545,0.122044853
38.7,,,,0.016595234,0.441802631,9.352225981,0.001605187,0.018049639,0.121115554
38.75,,,,-0.013689495,0.501932698,9.808387683,-0.000881037,0.01858155,0.121070411
38.8,,,,-0.101061733,0.490935917,10.07261303,-0.002483245,0.013293054,0.121064269
38.85,,,,-0.139695301,0.46674312,10.1604243,-0.002396879,0.005749434,0.121069858
38.9,,,,-0.130320039,0.447971353,10.1093636,-0.001044335,-0.001037733,0.121074503
38.95,,,,-0.093860355,0.442971037,9.983974929,0.00060894,-0.005273184,0.121075062
39,313.979742,-125.8839666,0.676316307,-0.049766535,0.450086284,9.848982339,0.001737082,-0.00652153,0.121072019
39.05,,,,-2.04314148,0.206042212,9.103588629,0.001846878,0.008619685,0.117757949
39.1,,,,-2.578214657,0.190725263,9.373038612,-0.000521787,0.018562929,0.114128786
39.15,,,,-2.608989744,0.170704571,9.8240621,-0.003389581,0.01896351,0.110513231
39.2,,,,-2.706466485,0.120654571,10.07954547,-0.004701154,0.013564812,0.10689819
39.25,,,,-2.740413296,0.066006074,10.16399775,-0.00409653,0.005845334,0.103280726
39.3,,,,-2.728456225,0.022884236,10.10931816,-0.00231569,-0.001113516,0.099661526
39.35,,,,-2.688929702,-0.003593402,9.981853933,-0.000449877,-0.005479365,0.096039142
39.4,,,,-2.641597921,-0.017480632,9.846178239,0.000704174,-0.006794645,0.092412492
39.45,,,,-2.558281802,-0.045977393,9.763111256,0.00092931,-0.006020926,0.088296185
39.5,,,,-0.972604975,-0.05361995,10.21465796,0.000438668,-0.014717074,0.082519573
39.55,,,,0.01495605,0.245039453,10.11743105,0.000774302,-0.021422258,0.083216346
39.6,,,,0.026042438,0.202167223,9.671751378,0.002109379,-0.018534208,0.083246692
39.65,,,,0.105720564,0.213399335,9.461313683,0.002630188,-0.010925994,0.083257493
39.7,,,,0.124402605,0.231055766,9.431764226,0.001928037,-0.002452268,0.083258804
39.75,,,,0.097393832,0.241990477,9.52963144,0.00049465,0.004036871,0.083261574
39.8,,,,0.049200662,0.241037771,9.680575959,-0.000857931,0.007225096,0.083265756
39.85,,,,0.001282496,0.231298965,9.819806768,-0.001540367,0.00722338,0.083268976
39.9,,,,-0.031913975,0.219467038,9.909021283,-0.001420044,0.00506143,0.083270206
39.95,,,,-0.045251056,0.211193254,9.938331763,-0.000747312,0.002080749,0.083269782
40,316.7177607,-124.9802846,0.676237263,-0.041208324,0.208809969,9.919213924,7.22E-05,-0.000564688,0.08326838
40.05,,,,-1.952586691,-1.960844631,9.30351474,-0.017192844,0.010136283,0.0529601
40.1,,,,-2.512271675,-1.685991597,9.447356224,-0.013884584,0.018174998,0.029878771
40.15,,,,-2.57493835,-1.039633249,9.835175465,-0.002289038,0.01808481,0.017729763
40.2,,,,-2.332723631,-0.791284035,10.21365135,0.006159795,0.00967384,0.006887578
40.25,,,,-1.256168541,-0.708207089,10.55637963,0.007923298,-0.006610305,-0.005732955
40.3,,,,-0.184535727,-0.104981164,10.49659926,0.005612696,-0.0221453,-0.006828816
40.35,,,,-0.026228764,-0.091137696,9.930711661,0.003982017,-0.025655257,-0.008041373
40.4,,,,0.093067747,-0.060785783,9.523254092,0.002769455,-0.020017282,-0.008811248
40.45,,,,0.166431228,-0.037419137,9.351874259,0.001567049,-0.010070045,-0.009280158
40.5,,,,0.169492827,-0.021908665,9.381394251,0.000269885,-0.000241621,-0.009560813
40.55,,,,0.126432893,-0.015515192,9.533660965,-0.000900368,0.00650377,-0.009726999
40.6,,,,0.065437391,-0.017452948,9.718940356,-0.001617787,0.009111181,-0.009826023
40.65,,,,0.011198773,-0.024008154,9.869110953,-0.001705654,0.008123844,-0.009886223
40.7,,,,-0.021940549,-0.030546451,9.950602525,-0.001241618,0.004995772,-0.009923579
40.75,,,,-0.030875772,-0.03374564,9.96226279,-0.000496771,0.001357331,-0.009947029
40.8,,,,-0.020786276,-0.032656738,9.924293772,0.000211257,-0.001531921,-0.009961831
40.85,,,,-0.000802526,-0.02841122,9.864773282,0.000653687,-0.003041428,-0.009971127
40.9,,,,0.019959046,-0.023145513,9.808614736,0.000754888,-0.003156332,-0.009976717
40.95,,,,0.035050268,-0.018852248,9.771328176,0.000578334,-0.002284789,-0.009979683
41,318.77532,-124.4516852,0.67718492,0.041744191,-0.016646917,9.757687069,0.000263618,-0.00100103,-0.009980876
41.05,,,,2.077275316,-0.02592779,10.41554889,-0.00225308,-0.013988117,-0.010475254
41.1,,,,2.631893331,-0.074750638,10.10471893,-0.00162819,-0.020765811,-0.011025477
41.15,,,,2.661179388,-0.100088557,9.665220644,0.000545716,-0.018253283,-0.011576269
41.2,,,,2.747018622,-0.091272768,9.453598747,0.001923607,-0.011027728,-0.012131269
41.25,,,,2.766078116,-0.071954317,9.420657326,0.001763245,-0.002804503,-0.012681808
41.3,,,,2.741411841,-0.059214973,9.515898383,0.00052174,0.003585506,-0.013224528
41.35,,,,2.695182248,-0.060190286,9.664509147,-0.000870546,0.006813135,-0.013762739
41.4,,,,2.64848756,-0.072024754,9.802364317,-0.001687618,0.006940622,-0.014301448
41.45,,,,2.615600696,-0.0873565,9.891538256,-0.001706927,0.004936615,-0.014843334
41.5,,,,2.601803426,-0.099764513,9.922025139,-0.001142299,0.002090313,-0.015388455
41.55,,,,2.60495368,-0.106447533,9.904754091,-0.000395252,-0.000474847,-0.015935546
41.6,,,,2.618628169,-0.108104326,9.861022934,0.000185544,-0.002080181,-0.016482953
41.65,,,,2.635389468,-0.107315085,9.812675477,0.000431662,-0.002550073,-0.01702912
41.7,,,,2.649257379,-0.106777552,9.775549776,0.000358988,-0.002103612,-0.017573006
41.75,,,,2.656988255,-0.108193003,9.756907934,9.58E-05,-0.001164282,-0.018114363
41.8,,,,2.658177243,-0.111983836,9.756198046,-0.000205945,-0.000169359,-0.018653672
41.85,,,,2.654499843,-0.117615947,9.767799062,-0.000434094,0.000564845,-0.019191755
41.9,,,,2.648566345,-0.124154686,9.784310615,-0.000541354,0.00089956,-0.019729359
41.95,,,,2.642847353,-0.130746949,9.799279649,-0.000537407,0.000859513,-0.020266908
42,322.0549923,-123.7061516,0.6827565,2.638974348,-0.136881279,9.80877434,-0.00046461,0.000574389,-0.020804456
42.05,,,,-1.435276301,-0.124970936,8.510419165,0.004068563,0.028521739,-0.020370622
42.1,,,,-2.560734168,-0.031144144,9.163092281,0.00259548,0.043277844,-0.019822048
42.15,,,,-2.637434217,0.016132053,10.07359307,-0.001738195,0.038581666,-0.019268655
42.2,,,,-2.815564342,-0.005093656,10.51649067,-0.004350796,0.023739842,-0.018720906
42.25,,,,-2.853449394,-0.04529946,10.58635829,-0.003852696,0.006522293,-0.018177859
42.3,,,,-2.802761114,-0.071312893,10.38801224,-0.001219813,-0.007049862,-0.017634948
42.35,,,,-2.708836523,-0.070364577,10.07912485,0.001655587,-0.014072507,-0.017094941
42.4,,,,-2.612912649,-0.048399453,9.794644107,0.003311954,-0.014579653,-0.016559551
42.45,,,,-2.543705809,-0.019831601,9.612955785,0.003311759,-0.010542489,-0.016024765
42.5,,,,-2.513151754,0.002421741,9.553036191,0.002103778,-0.004640245,-0.015485763
42.55,,,,-2.518070109,0.012444979,9.590558342,0.000518509,0.000764213,-0.014941706
42.6,,,,-2.538334999,0.007078393,9.683705573,-0.00073429,0.00415551,-0.01449451
42.65,,,,-0.594144216,-0.032257353,10.41872638,-0.003472414,-0.008599402,-0.015038077
42.7,,,,-0.009898901,-0.055850576,10.19492884,-0.002636295,-0.017200968,-0.014965894
42.75,,,,0.006744133,-0.086935164,9.772041786,0.000117713,-0.016977729,-0.014963069
42.8,,,,0.095757774,-0.075988042,9.545205215,0.002102388,-0.011699691,-0.014968113
42.85,,,,0.126314825,-0.0510558,9.479536271,0.002349315,-0.004611006,-0.014974152
42.9,,,,0.11509599,-0.031234995,9.539628737,0.001239314,0.001541799,-0.014974924
42.95,,,,0.079667964,-0.025557385,9.661501008,-0.000248338,0.005219768,-0.014971103
43,325.5545475,-122.9689339,0.677384404,0.038649148,-0.032183893,9.78587552,-0.001276104,0.006136114,-0.014966427
43.05,,,,2.042959579,-0.052979611,10.52635255,-0.003723907,-0.009249801,-0.015455887
43.1,,,,2.586875452,-0.110764953,10.23674928,-0.002498552,-0.019083153,-0.016002942
43.15,,,,2.621813202,-0.139717414,9.771684318,0.000415077,-0.019154419,-0.016553447
43.2,,,,2.723004614,-0.129658494,9.511331007,0.002342939,-0.013417466,-0.01711104
43.25,,,,2.759746624,-0.106620267,9.428735627,0.002393263,-0.005491791,-0.017664176
43.3,,,,2.749025122,-0.090292627,9.488289557,0.001052518,0.001502336,-0.018206101
43.35,,,,2.709873761,-0.089573848,9.621010689,-0.000614115,0.005769739,-0.018739254
43.4,,,,2.663382888,-0.102066864,9.760955919,-0.001728201,0.006923805,-0.019270325
43.45,,,,2.625958555,-0.119821334,9.863773419,-0.001959062,0.005629344,-0.019804363
43.5,,,,2.605769424,-0.135391685,9.911745183,-0.001479031,0.003061911,-0.020342995
43.55,,,,2.603175046,-0.145062482,9.909429578,-0.000704903,0.000396136,-0.02088538
43.6,,,,2.613254911,-0.149006372,9.874517347,-3.18E-05,-0.001540048,-0.021429459
43.65,,,,2.628963595,-0.149691446,9.82818948,0.000320816,-0.002399175,-0.021972865
43.7,,,,2.643838884,-0.149999031,9.787832306,0.00033077,-0.002264655,-0.022513704
43.75,,,,2.653690528,-0.15194632,9.763317344,0.000108916,-0.001490026,-0.023051114
43.8,,,,2.657124013,-0.156260033,9.756663277,-0.000191469,-0.000508891,-0.023585342
43.85,,,,2.655092767,-0.162608534,9.764036539,-0.000445344,0.000319433,-0.024117345
43.9,,,,2.649890195,-0.170130135,9.778758339,-0.000588658,0.000794036,-0.024648212
43.95,,,,2.644046799,-0.177937722,9.794148957,-0.000616931,0.000883105,-0.025178725
44,329.8758743,-122.1424199,0.682779532,2.639494945,-0.185426925,9.805462127,-0.000564206,0.000680711,-0.025709194
44.05,,,,-1.435616045,-0.175545721,8.509316144,0.003973109,0.028653949,-0.025275187
44.1,,,,-2.561806766,-0.081821685,9.163809594,0.002554284,0.043389797,-0.02473097
44.15,,,,-2.638901566,-0.033078825,10.07541974,-0.001710341,0.038646896,-0.024179259
44.2,,,,-2.817068591,-0.052533157,10.51856802,-0.004273992,0.023753375,-0.023630026
44.25,,,,-2.854746724,-0.091251068,10.58795965,-0.003758921,0.006496274,-0.02308688
44.3,,,,-2.803744957,-0.116163693,10.38875228,-0.001133467,-0.007094658,-0.022548717
44.35,,,,-2.709518933,-0.114267131,10.07900794,0.001725101,-0.014115664,-0.022018064
44.4,,,,-2.613384581,-0.091253858,9.793960335,0.003366957,-0.014607522,-0.021493803
44.45,,,,-2.544089393,-0.061437113,9.612099332,0.003359025,-0.010550525,-0.020968816
44.5,,,,-2.513554804,-0.037788733,9.552337679,0.002148983,-0.004631645,-0.020436561
44.55,,,,-2.518555682,-0.026347575,9.590191066,0.00056438,0.000781989,-0.019896224
44.6,,,,-2.546238335,-0.025885815,9.680782646,-0.000675726,0.004236647,-0.019351407
44.65,,,,-2.581007265,-0.031046975,9.779277237,-0.001222043,0.005325888,-0.018806053
44.7,,,,-2.610147714,-0.036146564,9.853907477,-0.001104819,0.004475633,-0.018262161
44.75,,,,-2.626730778,-0.037619359,9.890662641,-0.000587118,0.002553801,-0.017719933
44.8,,,,-2.629792676,-0.034600444,9.891296593,1.69E-05,0.000473309,-0.017178738
44.85,,,,-1.511873367,-0.046720336,10.26208362,-0.00110844,-0.009598529,-0.017266365
44.9,,,,-0.004008201,-0.057313599,10.37349366,-0.001372849,-0.022262056,-0.017236109
44.95,,,,-0.001191018,-0.092610694,9.812685639,0.000661737,-0.022843703,-0.01723533
45,334.2618126,-121.3954897,0.677836727,0.110209452,-0.086621122,9.495270659,0.002302918,-0.016243246,-0.017241244
45.05,,,,2.195616898,-0.073237077,10.03775217,0.000183423,-0.021028278,-0.0177393
45.1,,,,2.745153055,-0.102402951,9.767918356,-0.000249227,-0.02014572,-0.018286294
45.15,,,,2.463555882,-0.131079438,9.352539338,0.000841717,-0.010369956,-0.01897006
45.2,,,,0.366341855,-0.103670505,8.71805325,0.002805036,0.013404179,-0.018978962
45.25,,,,0.165838759,-0.046638901,9.295388615,0.000853884,0.025217166,-0.018965382
45.3,,,,0.037294212,-0.03257397,9.846229867,-0.00210645,0.025142197,-0.01895038
45.35,,,,-0.087943616,-0.053829596,10.17817913,-0.00364725,0.017478588,-0.018939431
45.4,,,,-0.132125452,-0.084178179,10.28274089,-0.003117235,0.007003466,-0.018935821
45.45,,,,-0.115867111,-0.103962859,10.20513698,-0.00124052,-0.00218897,-0.018937697
45.5,,,,-0.063962663,-0.106051515,10.03331894,0.000761217,-0.007748416,-0.018943905
45.55,,,,-0.0032994,-0.094546518,9.852434056,0.001962086,-0.009185159,-0.018952356
45.6,,,,0.04545642,-0.078546867,9.720192741,0.002076063,-0.007400215,-0.01895927
45.65,,,,0.071671227,-0.066176549,9.659505037,0.001371181,-0.003962833,-0.018961649
45.7,,,,0.074678534,-0.061324081,9.664094537,0.00036528,-0.000429342,-0.018959392
45.75,,,,0.060930096,-0.063463561,9.710597451,-0.000474495,0.002112899,-0.018954725
45.8,,,,0.039864292,-0.069464255,9.771274081,-0.000899872,0.003217565,-0.018950224
45.85,,,,0.020123185,-0.07581811,9.823535039,-0.000898933,0.003008338,-0.01894743
45.9,,,,0.007203414,-0.080151108,9.85474385,-0.000615396,0.001962249,-0.018946662
45.95,,,,0.002815159,-0.081680853,9.8625718,-0.000240315,0.000656482,-0.018947456
46,338.1298067,-120.817122,0.676648669,0.00558154,-0.080884907,9.852290059,7.19E-05,-0.000435327,-0.018949048
46.05,,,,2.049038171,-0.087845598,10.48457724,-0.001977086,-0.015220771,-0.019441998
46.1,,,,2.617155222,-0.134439813,10.13604289,-0.001169258,-0.022859846,-0.019989015
46.15,,,,2.659720711,-0.158680527,9.661546913,0.000944077,-0.020305297,-0.02053753
46.2,,,,2.754943304,-0.150085912,9.427097362,0.002122367,-0.012430659,-0.021091276
46.25,,,,2.777808631,-0.132269372,9.386356855,0.001731476,-0.003337463,-0.021638585
46.3,,,,2.751853095,-0.122005944,9.486376605,0.000306688,0.003811924,-0.022173815
46.35,,,,2.701194813,-0.126058064,9.646997534,-0.00118503,0.007493982,-0.022700636
46.4,,,,2.649282549,-0.141180208,9.798300159,-0.00201758,0.007729294,-0.023226264
46.45,,,,2.612234868,-0.159674827,9.897933543,-0.001991563,0.005562489,-0.023755826
46.5,,,,2.07970163,-0.21051392,9.739427942,-0.000465366,0.006610501,-0.024946673
46.55,,,,0.078857479,-0.163146045,9.268701803,0.001673376,0.018031664,-0.02492889
46.6,,,,0.027241619,-0.116523007,9.754819124,0.000654139,0.0193923,-0.024906683
46.65,,,,-0.046510363,-0.107874129,10.06400668,-0.001030896,0.014156387,-0.024901092
46.7,,,,-0.094317536,-0.121720478,10.17513453,-0.001755761,0.006325918,-0.024895173
46.75,,,,-0.086531827,-0.139702413,10.13357666,-0.001236664,-0.000874184,-0.024892951
46.8,,,,-0.049280284,-0.149250215,10.0048851,-7.05E-05,-0.005453425,-0.024895837
46.85,,,,-0.003128812,-0.147312632,9.860434578,0.000949172,-0.006887612,-0.024902884
46.9,,,,0.035274087,-0.138147634,9.750410857,0.001340268,-0.005774719,-0.02491052
46.95,,,,0.057009173,-0.12828555,9.696359806,0.001074048,-0.003279046,-0.024914931
47,342.9729584,-120.1962138,0.677553838,0.060976835,-0.122460586,9.695166614,0.000436076,-0.00059689,-0.024914592
47.05,,,,-1.984902137,-0.113286605,9.076052268,0.002014443,0.015576263,-0.024422848
47.1,,,,-2.563065085,-0.066925883,9.447401663,0.000853095,0.024064799,-0.023874861
47.15,,,,-1.410830071,-0.037932644,10.36807898,-0.00306439,0.012619354,-0.023422488
47.2,,,,-0.107595047,-0.096807956,10.71233474,-0.00452009,-0.006992458,-0.023459727
47.25,,,,-0.138746273,-0.154404371,10.23240584,-0.001950016,-0.016917617,-0.023455041
47.3,,,,-0.011406659,-0.165162132,9.837839017,0.00134197,-0.018421671,-0.023462339
47.35,,,,0.083085675,-0.144497654,9.574584302,0.003162487,-0.013862794,-0.023479363
47.4,,,,0.126359823,-0.114755519,9.476181095,0.002947131,-0.006616741,-0.023493088
47.45,,,,0.124217641,-0.094448477,9.513960951,0.001391674,0.000257539,-0.023494937
47.5,,,,0.091795109,-0.090505976,9.627809386,-0.000382022,0.004831179,-0.023486613
47.55,,,,0.048764044,-0.099346097,9.75695809,-0.001527678,0.006488835,-0.023475113
47.6,,,,0.011461912,-0.112767481,9.857814845,-0.001762838,0.00567675,-0.023466315
47.65,,,,-0.010879648,-0.123571239,9.910379984,-0.001285618,0.003427542,-0.023462633
47.7,,,,-0.016473443,-0.128337698,9.9156375,-0.000513234,0.000869002,-0.02346372
47.75,,,,-0.0090237,-0.1273571,9.887966768,0.000169112,-0.001137907,-0.023467769
47.8,,,,0.005131294,-0.123035045,9.846434918,0.0005472,-0.002168526,-0.023472555
47.85,,,,0.019685491,-0.118122272,9.807756523,0.000594442,-0.00222263,-0.023476235
47.9,,,,0.030185245,-0.114548928,9.782296358,0.000410527,-0.001591201,-0.023477892
47.95,,,,0.034763596,-0.113046774,9.773198037,0.000137986,-0.000678665,-0.023477609
48,347.8472916,-119.6876043,0.677118344,0.033899029,-0.11336275,9.777841712,-0.0001032,0.000153143,-0.023476126
48.05,,,,0.788437626,-0.121366377,9.998898944,-0.000742685,-0.003888114,-0.0236648
48.1,,,,0.013711926,-0.132522319,9.633723753,0.000214105,-0.000145767,-0.023653204
48.15,,,,0.050079572,-0.121017038,9.709457285,0.000374367,0.002035043,-0.023654727
48.2,,,,0.036385043,-0.114488027,9.775676844,7.47E-05,0.002832306,-0.023655021
48.25,,,,0.017313609,-0.113613453,9.827366145,-0.000284236,0.002511532,-0.023653676
48.3,,,,0.007360581,-0.116441343,9.856045031,-0.000445678,0.001530592,-0.023651944
48.35,,,,0.00479235,-0.119996586,9.860254371,-0.000364238,0.000408292,-0.023650984
48.4,,,,0.008076102,-0.122043852,9.847484664,-0.000146724,-0.000470058,-0.023651238
48.45,,,,0.01427928,-0.121996748,9.827643823,6.33E-05,-0.00092039,-0.023652398
48.5,,,,0.02059156,-0.12053123,9.809232175,0.000171506,-0.000947029,-0.023653768
48.55,,,,0.025101654,-0.118760542,9.79730232,0.000160552,-0.000679024,-0.02365471
48.6,,,,0.027051705,-0.117546164,9.793198681,7.06E-05,-0.000291204,-0.023654941
48.65,,,,0.02668364,-0.117205376,9.795479512,-3.87E-05,6.22E-05,-0.023654556
48.7,,,,0.024846989,-0.117579859,9.801314591,-0.000119998,0.000286592,-0.023653873
48.75,,,,0.022555676,-0.118282724,9.8077889,-0.000153056,0.000355729,-0.023653224
48.8,,,,0.020637159,-0.118941911,9.812778103,-0.000142446,0.000298035,-0.023652821
48.85,,,,0.019546766,-0.119338963,9.815298823,-0.00010673,0.000170804,-0.02365272
48.9,,,,0.01934981,-0.119430892,9.815414472,-6.65E-05,3.41E-05,-0.023652856
48.95,,,,0.019824465,-0.119296579,9.813872233,-3.65E-05,-6.81E-05,-0.023653108
49,352.7519399,-119.2925811,0.67690403,0.020617623,-0.119060922,9.811662683,-2.27E-05,-0.000115921,-0.02365336
49.05,,,,1.270238783,-0.127954232,10.17385849,-0.00102348,-0.008067911,-0.023975078
49.1,,,,0.044314914,-0.146514101,9.532692556,0.000701883,-0.002278461,-0.023959925
49.15,,,,0.06712066,-0.126422188,9.614831589,0.001012223,0.001955417,-0.023963218
49.2,,,,0.058760183,-0.113004256,9.720567113,0.00039755,0.004056089,-0.023964075
49.25,,,,0.025468285,-0.110592774,9.809846006,-0.000376641,0.004252401,-0.023961016
49.3,,,,0.005271319,-0.115590571,9.86869909,-0.000798792,0.003094701,-0.023956821
49.35,,,,-0.003630785,-0.122608824,9.888487913,-0.000741223,0.001385608,-0.023953988
49.4,,,,-0.002127927,-0.127257304,9.87737532,-0.000374638,-0.000180665,-0.023953602
49.45,,,,0.005876718,-0.128051914,9.849750566,3.54E-05,-0.001183298,-0.0239553
49.5,,,,0.015877133,-0.125915243,9.819716146,0.000293244,-0.001506794,-0.023957854
49.55,,,,0.024276968,-0.122775483,9.797041876,0.000337434,-0.001274106,-0.023959964
49.6,,,,0.029111102,-0.120297246,9.785885095,0.000218636,-0.00073288,-0.023960875
49.65,,,,0.030088323,-0.119256168,9.785594576,3.64E-05,-0.000142661,-0.023960562
49.7,,,,0.028144195,-0.119556598,9.792586734,-0.000119727,0.000305134,-0.023959508
49.75,,,,0.024780671,-0.120610374,9.80238366,-0.000202061,0.000521968,-0.023958328
49.8,,,,0.021446658,-0.121762604,9.811195547,-0.000207147,0.000515891,-0.023957479
49.85,,,,0.019127012,-0.122568838,9.816771995,-0.000160365,0.000358828,-0.023957142
49.9,,,,0.018196139,-0.122876667,9.818536314,-9.58E-05,0.000145219,-0.023957257
49.95,,,,0.018497419,-0.122764728,9.817203832,-4.11E-05,-4.32E-05,-0.02395763
50,357.727997,-119.0108195,0.676887214,0.019555202,-0.122423767,9.814158529,-1.04E-05,-0.000157644,-0.023958052
50.05,,,,-2.015827462,-0.113271161,9.157744921,0.002220116,0.013982149,-0.023469642
50.1,,,,-2.577332974,-0.063285638,9.47969585,0.001445596,0.021563977,-0.022925227
50.15,,,,-2.614790158,-0.036578677,9.934286034,-0.000751062,0.019376399,-0.022381147
50.2,,,,-2.705312904,-0.044027295,10.15756864,-0.002074541,0.012042376,-0.021835975
50.25,,,,-2.726294576,-0.061300083,10.19563092,-0.001830379,0.003443918,-0.021292133
50.3,,,,-2.702161168,-0.071657214,10.09957293,-0.000509882,-0.003390111,-0.020750221
50.35,,,,-2.655431888,-0.068446814,9.947105437,0.000936368,-0.006976401,-0.020210809
50.4,,,,-2.607194894,-0.054621742,9.805264024,0.00177334,-0.007300323,-0.019673006
50.45,,,,-2.572188193,-0.037501924,9.713552781,0.001779045,-0.005326443,-0.019134399
50.5,,,,-2.55650866,-0.023610099,9.682175106,0.001176077,-0.002388252,-0.01859303
50.55,,,,-2.558608125,-0.015911382,9.699652942,0.000379542,0.000326679,-0.018048737
50.6,,,,-2.572149537,-0.013752433,9.744026924,-0.000248524,0.002079483,-0.017502669
50.65,,,,-2.589409353,-0.014462254,9.7930072,-0.00053079,0.002653467,-0.016956088
50.7,,,,-2.604027506,-0.015220987,9.830575708,-0.000480258,0.002251309,-0.016409666
50.75,,,,-2.612464773,-0.014255748,9.849470719,-0.000227333,0.001301953,-0.01586351
50.8,,,,-2.614146907,-0.011130574,9.850314878,7.10E-05,0.000261929,-0.015317441
50.85,,,,-2.610687326,-0.00639558,9.838790931,0.00029734,-0.00052899,-0.014771217
50.9,,,,-2.604718182,-0.001008009,9.822319872,0.000400195,-0.000912285,-0.014224634
50.95,,,,-1.264195259,0.077937299,10.26973361,-0.001398275,-0.010880367,-0.012327648
51,361.4247604,-118.8811853,0.673627528,0.014730634,-0.042484263,10.28645904,-0.001484828,-0.021465226,-0.012589068
51.05,,,,2.049174046,-0.072663641,10.41924777,-0.001673686,-0.035124849,-0.013096721
51.1,,,,2.710055434,-0.113200871,9.813025064,0.000715988,-0.035915106,-0.013655053
51.15,,,,2.785350262,-0.115671722,9.271413503,0.003016081,-0.024772799,-0.014212309
51.2,,,,2.863780852,-0.087739537,9.11387071,0.003170376,-0.009757642,-0.014767675
51.25,,,,2.842149076,-0.062915256,9.219659679,0.001395245,0.00334216,-0.01530919
51.3,,,,2.766271441,-0.057701358,9.466583565,-0.000976662,0.011183982,-0.015839584
51.35,,,,2.677686941,-0.072093228,9.730129366,-0.002636415,0.013113104,-0.016369181
51.4,,,,2.607624302,-0.095612875,9.924682443,-0.002985914,0.010464673,-0.016904787
51.45,,,,2.571142089,-0.116733333,10.01524955,-0.002204632,0.005510293,-0.017447268
51.5,,,,2.568075445,-0.128900539,10.0099134,-0.000914355,0.000477931,-0.017994592
51.55,,,,2.588455235,-0.131668743,9.942504616,0.000239335,-0.003096501,-0.018544071
51.6,,,,2.618709741,-0.128648798,9.853805178,0.000865801,-0.004603899,-0.01909286
51.65,,,,2.646713124,-0.124566139,9.777213433,0.000900376,-0.004247322,-0.019638448
51.7,,,,2.664810758,-0.12300338,9.731453738,0.000517651,-0.002723348,-0.020179545
51.75,,,,2.670670448,-0.125439159,9.720004481,-1.71E-05,-0.000858107,-0.020716502
51.8,,,,2.66634335,-0.131452342,9.735120963,-0.000476016,0.000680281,-0.021250828
51.85,,,,2.656302907,-0.13956554,9.763763054,-0.00073569,0.001531845,-0.021784248
51.9,,,,2.645344783,-0.148157521,9.793112975,-0.000781856,0.00165596,-0.022317976
51.95,,,,2.637036023,-0.156074641,9.814247475,-0.000674846,0.00124355,-0.022852458
52,365.3312662,-118.8131142,0.682670369,2.633023551,-0.162840624,9.823507959,-0.000502969,0.000587296,-0.023387487
52.05,,,,2.607497067,-0.184075678,9.811759369,-0.000285137,0.000180279,-0.024255048
52.1,,,,0.704846238,-0.238866385,9.197876162,0.00177681,0.013170927,-0.025845871
52.15,,,,0.039131353,-0.123078373,9.463198324,0.001061349,0.020947899,-0.025660675
52.2,,,,0.009522271,-0.109472294,9.92071898,-0.001037558,0.019032334,-0.025652728
52.25,,,,-0.080591419,-0.121654786,10.14879573,-0.002312598,0.011976664,-0.025642813
52.3,,,,-0.103178571,-0.143714235,10.19309749,-0.002074417,0.003582784,-0.025638856
52.35,,,,-0.080651734,-0.159201207,10.10251468,-0.000788032,-0.003157055,-0.025641331
52.4,,,,-0.03528589,-0.161450855,9.953031617,0.000628914,-0.006748207,-0.025649775
52.45,,,,0.012131901,-0.153068582,9.811466755,0.001459878,-0.007139808,-0.025660789
52.5,,,,0.046885182,-0.141067718,9.718095333,0.001482727,-0.005254851,-0.025669445
52.55,,,,0.062731892,-0.131865383,9.684298474,0.00090821,-0.002393914,-0.025672474
52.6,,,,0.061004199,-0.128512881,9.69964269,0.00013791,0.000273412,-0.025669965
52.65,,,,0.047839051,-0.13052722,9.742771093,-0.000474313,0.002011559,-0.025664464
52.7,,,,0.030830315,-0.1353778,9.791502097,-0.000752077,0.002596731,-0.025658948
52.75,,,,0.016292091,-0.140295388,9.829563245,-0.00070421,0.002219723,-0.02565538
52.8,,,,0.007783792,-0.143472253,9.849282682,-0.000455368,0.001297779,-0.025654339
52.85,,,,0.005935479,-0.144394398,9.850904661,-0.000158124,0.000279086,-0.025655353
52.9,,,,0.009196414,-0.143537013,9.839878039,7.19E-05,-0.000500426,-0.025657439
52.95,,,,0.014984395,-0.14181411,9.823560964,0.000182521,-0.000882055,-0.02565959
53,370.6730156,-118.8375985,0.676888648,0.020774107,-0.14009343,9.808464574,0.000179355,-0.00087619,-0.0256611
53.05,,,,-2.011799262,-0.130250855,9.1455783,0.002329258,0.013562838,-0.025174031
53.1,,,,-2.572657696,-0.079869511,9.46673824,0.001474046,0.021476598,-0.02463101
53.15,,,,-2.611205415,-0.052978153,9.924656387,-0.000779335,0.019543492,-0.024087516
53.2,,,,-2.703642408,-0.060424703,10.15309394,-0.002128144,0.012334034,-0.023542429
53.25,,,,-2.726499487,-0.077739143,10.19601505,-0.001881328,0.003733371,-0.022999097
53.3,,,,-2.703657935,-0.088048467,10.10315391,-0.000539606,-0.003189157,-0.022458674
53.35,,,,-2.657444613,-0.08461053,9.951790094,0.000935154,-0.0068964,-0.021921638
53.4,,,,-2.609037774,-0.070359057,9.809296653,0.001797889,-0.007327064,-0.021386586
53.45,,,,-2.57343517,-0.052661793,9.715933879,0.001819994,-0.005418065,-0.020850526
53.5,,,,-2.557040779,-0.038128547,9.682716867,0.001221847,-0.002496573,-0.020311135
53.55,,,,-2.558556946,-0.029812249,9.69877486,0.000420336,0.000239692,-0.019768198
53.6,,,,-2.571780681,-0.027116161,9.742437746,-0.000218226,0.00203349,-0.019223061
53.65,,,,-2.4803562,0.002388781,9.834535686,-0.000743695,0.001723687,-0.018053952
53.7,,,,-0.379815216,-0.018484493,10.50575861,-0.00269531,-0.013325792,-0.017590886
53.75,,,,-0.020808686,-0.089258289,10.11749955,-0.001315554,-0.020470628,-0.017675342
53.8,,,,0.0327852,-0.101750093,9.692480884,0.001136946,-0.018489931,-0.017680192
53.85,,,,0.120237254,-0.085635933,9.478678,0.002476466,-0.011572216,-0.017689171
53.9,,,,0.142609969,-0.0612858,9.440789966,0.00214151,-0.003405745,-0.017694031
53.95,,,,0.121147885,-0.045411985,9.530290882,0.000732779,0.003125164,-0.017691862
54,374.8814044,-118.955424,0.678039575,0.076751347,-0.044055843,9.674234796,-0.000755791,0.006593299,-0.017685266
54.05,,,,2.067112958,-0.062517165,10.46148199,-0.003816236,-0.007207568,-0.01816974
54.1,,,,2.594523665,-0.123431234,10.22211005,-0.003027813,-0.016582417,-0.018711442
54.15,,,,2.616056584,-0.157862089,9.794457567,-0.00023097,-0.017093444,-0.019258517
54.2,,,,2.709622662,-0.152625717,9.552005238,0.001853336,-0.012272522,-0.019814867
54.25,,,,2.745011522,-0.132203639,9.469233094,0.002184582,-0.005312975,-0.020368452
54.3,,,,2.737712429,-0.116183485,9.516727674,0.001099578,0.000968833,-0.020910911
54.35,,,,2.704233425,-0.114370844,9.633001646,-0.000424663,0.004909607,-0.021443128
54.4,,,,2.663217967,-0.125536605,9.758348307,-0.001523605,0.006098492,-0.021971372
54.45,,,,2.629467548,-0.142564372,9.852064414,-0.00182835,0.005076182,-0.02250138
54.5,,,,2.610617726,-0.158292885,9.89731135,-0.001454765,0.002862222,-0.023035766
54.55,,,,2.607369539,-0.168851443,9.89739852,-0.000772293,0.000499692,-0.023574309
54.6,,,,2.615625172,-0.174058531,9.867674902,-0.000150884,-0.001258868,-0.024115068
54.65,,,,2.629246584,-0.176037717,9.826909714,0.000192695,-0.002080108,-0.024655485
54.7,,,,2.642473785,-0.17744719,9.790730946,0.000224478,-0.002015114,-0.025193381
54.75,,,,2.651471649,-0.180224894,9.768212824,3.79E-05,-0.001362855,-0.025727653
54.8,,,,2.654853801,-0.185130154,9.761469262,-0.000229303,-0.000503481,-0.026258403
54.85,,,,2.653337394,-0.191923697,9.767346928,-0.000461598,0.000240266,-0.026786549
54.9,,,,2.648881284,-0.199847703,9.780049712,-0.000597777,0.000681418,-0.027313222
54.95,,,,2.643715352,-0.208097261,9.793660241,-0.00063076,0.00078233,-0.027839288
55,379.8406554,-119.2000457,0.682785718,2.639586263,-0.216111882,9.803886971,-0.000589036,0.000619393,-0.028365148
55.05,,,,-1.43540489,-0.207246799,8.507453089,0.003941588,0.028639165,-0.027930836
55.1,,,,-2.561720301,-0.113581967,9.162289623,0.002540364,0.043412707,-0.027389293
55.15,,,,-2.639075062,-0.064051793,10.07463309,-0.00169659,0.038689581,-0.02683874
55.2,,,,-2.817506693,-0.082579675,10.51855082,-0.004240013,0.023796986,-0.026288737
55.25,,,,-2.855368533,-0.120562499,10.58846961,-0.003718591,0.006527483,-0.025745754
55.3,,,,-2.804438841,-0.144971494,10.38944078,-0.001096927,-0.007080987,-0.025210852
55.35,,,,-2.710186065,-0.142647609,10.07958151,0.0017553,-0.014117431,-0.024686416
55.4,,,,-2.613963171,-0.119119789,9.794267735,0.003393676,-0.014618497,-0.02416956
55.45,,,,-2.54456135,-0.088633042,9.612133746,0.003386133,-0.010563765,-0.02365119
55.5,,,,-2.513937655,-0.064194171,9.552184642,0.002178261,-0.00464193,-0.023123624
55.55,,,,-2.518885606,-0.051929795,9.589963772,0.000595028,0.000777157,-0.022586015
55.6,,,,-2.546552473,-0.050692722,9.680574053,-0.000645717,0.004237264,-0.022042696
55.65,,,,-2.251471779,-0.082940381,9.906127789,-0.001771917,0.002601507,-0.022180981
55.7,,,,-0.173106397,-0.081195653,10.53224438,-0.00345675,-0.013026627,-0.022200041
55.75,,,,-0.041219551,-0.132133346,10.06993199,-0.001476236,-0.019253915,-0.022178014
55.8,,,,0.035488415,-0.144278203,9.686079633,0.001249896,-0.017249732,-0.022184614
55.85,,,,0.114791063,-0.125019914,9.491797556,0.002620508,-0.010698772,-0.022198971
55.9,,,,0.134259942,-0.099066574,9.463132303,0.002212251,-0.003056917,-0.02220922
55.95,,,,0.113520759,-0.083016741,9.551413633,0.000739194,0.003008394,-0.022209319
56,384.9699863,-119.5733453,0.67795109,0.071806496,-0.082115278,9.687548302,-0.000763839,0.006198071,-0.022202188
56.05,,,,-2.008129422,-0.083035317,9.160298079,0.000635981,0.020665795,-0.02170486
56.1,,,,-2.602375501,-0.046116007,9.566330515,-0.000117162,0.026468286,-0.021154528
56.15,,,,-2.654199912,-0.028848651,10.05041507,-0.001707391,0.021602717,-0.020609223
56.2,,,,-2.742352927,-0.039399673,10.25846403,-0.002260946,0.011776906,-0.020065628
56.25,,,,-2.750736192,-0.054525465,10.25623482,-0.001427717,0.001557326,-0.019523248
56.3,,,,-2.710860335,-0.060334371,10.11523346,0.000144766,-0.005819133,-0.018981713
56.35,,,,-2.650775288,-0.052863329,9.928068441,0.00152959,-0.009048702,-0.018441675
56.4,,,,-2.594674298,-0.036631529,9.768629699,0.002120085,-0.008507727,-0.017902365
56.45,,,,-2.557910831,-0.019291267,9.675943122,0.001841848,-0.005579866,-0.017361607
56.5,,,,-2.545237407,-0.006819307,9.655023205,0.001024951,-0.001912167,-0.016817972
56.55,,,,-2.552738129,-0.001268971,9.687582135,0.000129783,0.001159917,-0.016271832
56.6,,,,-2.571699259,-0.00115987,9.745735269,-0.000490471,0.002907388,-0.015724521
56.65,,,,-1.000782316,0.041883812,10.34015932,-0.00264905,-0.008364422,-0.014482759
56.7,,,,4.26E-05,-0.056820105,10.27536364,-0.002202309,-0.018768673,-0.014625649
56.75,,,,-0.000974773,-0.081662008,9.796258932,0.000300681,-0.019063279,-0.014629907
56.8,,,,0.098555579,-0.072428595,9.533667859,0.002181532,-0.013480943,-0.014637488
56.85,,,,0.13719951,-0.048327589,9.448274512,0.002395866,-0.005639141,-0.014642912
56.9,,,,0.127437419,-0.028515603,9.504743878,0.00125492,0.001343555,-0.014642672
56.95,,,,0.089235835,-0.022566587,9.635185128,-0.000284919,0.005646835,-0.014637918
57,388.4715505,-119.9032912,0.677486249,0.043369222,-0.029215597,9.773519633,-0.001367075,0.00685814,-0.01463259
57.05,,,,1.256483968,-0.050665094,10.24004247,-0.00261882,-0.002344393,-0.014953845
57.1,,,,0.008793047,-0.078390094,9.646681033,-0.000428982,0.000886187,-0.01493775
57.15,,,,0.028223577,-0.06270779,9.726966451,0.000638453,0.00242891,-0.014940596
57.2,,,,0.029772513,-0.048288978,9.798187116,0.000691462,0.002550489,-0.014943054
57.25,,,,0.012263727,-0.041623947,9.841392448,0.000277898,0.001844919,-0.014943516
57.3,,,,0.007149942,-0.041765787,9.860038905,-0.000117789,0.000791104,-0.014942944
57.35,,,,0.008346261,-0.04526314,9.855365011,-0.000264198,-0.000156936,-0.014942245
57.4,,,,0.013540136,-0.048484931,9.837557853,-0.000183994,-0.000740037,-0.014941949
57.45,,,,0.01975122,-0.049698554,9.817183108,-1.93E-05,-0.000902087,-0.014942111
57.5,,,,0.02472791,-0.049045862,9.801694135,9.99E-05,-0.00073508,-0.014942477
57.55,,,,0.02738463,-0.047607284,9.794233207,0.000119609,-0.000399411,-0.014942747
57.6,,,,0.02770243,-0.046433149,9.794268129,5.90E-05,-5.21E-05,-0.014942767
57.65,,,,0.026364576,-0.046027213,9.799135743,-2.86E-05,0.000198616,-0.014942571
57.7,,,,0.024315835,-0.046325161,9.805648437,-9.51E-05,0.000309168,-0.014942297
57.75,,,,0.022398214,-0.046955313,9.811252762,-0.000118424,0.000291828,-0.01494208
57.8,,,,0.021139374,-0.047533056,9.814567749,-0.000102688,0.000192917,-0.014941992
57.85,,,,0.020701653,-0.047837877,9.815379233,-6.69E-05,6.81E-05,-0.014942027
57.9,,,,0.020952827,-0.047844074,9.814293337,-3.13E-05,-3.71E-05,-0.014942135
57.95,,,,0.0215991,-0.04765504,9.812272929,-9.10E-06,-9.73E-05,-0.014942254
58,391.5519115,-120.2429986,0.676913474,0.022322664,-0.047410923,9.810232004,-3.50E-06,-0.000108873,-0.014942337
58.05,,,,2.05949767,-0.056385478,10.46052147,-0.002225078,-0.014251474,-0.015435196
58.1,,,,2.620392093,-0.104461584,10.13134092,-0.001433082,-0.021741608,-0.015983442
58.15,,,,2.657198304,-0.129185245,9.671487237,0.000770843,-0.019422705,-0.016533052
58.2,,,,2.749307221,-0.120187284,9.444140484,0.002079107,-0.01197681,-0.017087653
58.25,,,,2.771876076,-0.101315068,9.40324176,0.001803688,-0.003315753,-0.01763697
58.3,,,,2.747701383,-0.089638365,9.498161786,0.000450697,0.003529471,-0.018176342
58.35,,,,2.699715909,-0.09215952,9.651782018,-0.001018223,0.007087118,-0.01870917
58.4,,,,2.6502627,-0.105803225,9.79684173,-0.001866285,0.007359155,-0.019241569
58.45,,,,2.614775329,-0.122971503,9.892609533,-0.001876647,0.005328704,-0.019777472
58.5,,,,2.599269293,-0.137058737,9.927317405,-0.001278234,0.002346514,-0.020317716
58.55,,,,2.601827434,-0.145168208,9.911375221,-0.000489861,-0.00038861,-0.020861129
58.6,,,,2.615845711,-0.147996392,9.866579844,0.000125714,-0.002135908,-0.021405587
58.65,,,,2.63348549,-0.148193205,9.815833055,0.000392085,-0.002685591,-0.021948804
58.7,,,,2.648331611,-0.148561791,9.776102849,0.000323662,-0.002252083,-0.022489081
58.75,,,,2.656810065,-0.150904736,9.755493635,5.22E-05,-0.001275866,-0.023025827
58.8,,,,2.658356961,-0.155711469,9.753845104,-0.000264152,-0.000220943,-0.023559527
58.85,,,,2.65465603,-0.162468912,9.76549882,-0.000507263,0.000571044,-0.024091268
58.9,,,,2.648439243,-0.170224042,9.782731244,-0.000625308,0.000944613,-0.024622142
58.95,,,,2.642339862,-0.17808306,9.798665183,-0.000625864,0.000918746,-0.02515286
59,395.9105602,-120.8001834,0.682756608,2.638130361,-0.185489387,9.80900235,-0.000551475,0.00062664,-0.025683632
59.05,,,,2.636458159,-0.192274538,9.812458533,-0.000453223,0.000239967,-0.026214257
59.1,,,,2.637003348,-0.198561881,9.810185648,-0.000371773,-9.48E-05,-0.026744292
59.15,,,,2.638877965,-0.204618916,9.804664925,-0.0003288,-0.000292793,-0.027273241
59.2,,,,2.641070938,-0.210726406,9.798557834,-0.000327171,-0.000336835,-0.027800699
59.25,,,,2.642791013,-0.217094589,9.793863686,-0.000356405,-0.000261673,-0.028326434
59.3,,,,2.64363655,-0.223828084,9.791535761,-0.000400041,-0.000127133,-0.028850406
59.35,,,,2.64359492,-0.230928504,9.791526241,-0.000442406,7.76E-06,-0.029372715
59.4,,,,2.642924719,-0.238322626,9.793112895,-0.000473245,0.000102336,-0.02989352
59.45,,,,2.641993028,-0.245905358,9.795323043,-0.000489386,0.000140816,-0.030412952
59.5,,,,2.641130956,-0.253584508,9.797299492,-0.000493479,0.000129307,-0.030931063
59.55,,,,2.640545128,-0.261310971,9.798519364,-0.000490941,8.71E-05,-0.031447826
59.6,,,,2.640293963,-0.269081848,9.798847529,-0.000486915,3.70E-05,-0.031963164
59.65,,,,2.640315697,-0.276919303,9.79845927,-0.00048478,-3.28E-06,-0.032476983
59.7,,,,2.640484182,-0.284845287,9.797693103,-0.000486337,-2.42E-05,-0.032989185
59.75,,,,2.640667565,-0.29287355,9.796897247,-0.000492431,-2.54E-05,-0.033499662
59.8,,,,2.640770952,-0.301019863,9.796318805,-0.000502829,-1.23E-05,-0.034008313
59.85,,,,2.640754023,-0.309308663,9.796059488,-0.000515704,6.73E-06,-0.034515076
59.9,,,,1.616384658,-0.478914291,9.436485354,0.000786098,0.007816692,-0.038226109
59.95,,,,0.055332705,-0.29518977,9.251635644,0.00097189,0.020013215,-0.037790615
60,402.8015769,-121.8582491,0.678154304,0.040397112,-0.28136669,9.780538578,-0.000790871,0.021109507,-0.037782252
60.05,,,,-2.175605954,-3.71973257,9.489195961,-0.032289225,0.028428662,-0.085607723
60.1,,,,-2.809801565,-3.50539871,9.799991981,-0.032220729,0.029084323,-0.120631579
60.15,,,,-2.827657651,-2.75500957,10.19827475,-0.013552074,0.020807069,-0.139565126
60.2,,,,-2.890695643,-2.197665998,10.33943336,0.004938388,0.008879327,-0.150030181
60.25,,,,-2.875524843,-1.711030238,10.28252133,0.014594204,-0.002302229,-0.15527688
60.3,,,,-2.812504786,-1.341491992,10.09389492,0.015178952,-0.009529664,-0.15735178
60.35,,,,-2.731645318,-1.100822537,9.870444393,0.010617836,-0.01166703,-0.157466011
60.4,,,,-2.66110899,-0.96775774,9.693915647,0.005132178,-0.009504748,-0.156370881
60.45,,,,-2.618846456,-0.90284722,9.606828304,0.001246126,-0.004976672,-0.154549966
60.5,,,,-2.608825878,-0.867944381,9.609643042,-0.000430332,-0.00020396,-0.152312105
60.55,,,,-2.623419686,-0.837960583,9.673413936,-0.000469707,0.00324846,-0.149843181
60.6,,,,-2.649307332,-0.802576438,9.758634823,0.000233958,0.00470876,-0.147246464
60.65,,,,-2.673699428,-0.761451132,9.83161985,0.001004953,0.004338796,-0.144575738
60.7,,,,-2.688412887,-0.718058119,9.873563631,0.001535876,0.00282242,-0.141858417
60.75,,,,-2.691019399,-0.675527915,9.881661658,0.001793391,0.000984659,-0.139108981
60.8,,,,-2.683702887,-0.63522812,9.864632921,0.001859652,-0.000511975,-0.136335788
60.85,,,,-2.671036931,-0.597134177,9.836068597,0.001820519,-0.001321607,-0.133544252
60.9,,,,-2.657777041,-0.560723746,9.808536343,0.001726713,-0.001419892,-0.130738208
60.95,,,,-2.647340291,-0.525598354,9.790058916,0.001602419,-0.001007575,-0.127920495
61,409.1746951,-123.7809844,0.67124459,-2.429625408,-0.630426019,9.864416577,0.000957681,-0.002120999,-0.128035702
61.05,,,,-2.418301554,-0.530696892,9.793180598,0.000794118,-0.001734323,-0.12625789
61.1,,,,-2.648160231,-0.449179235,9.704414063,0.001146797,0.000576874,-0.123209686
61.15,,,,-2.624681401,-0.422070754,9.756705079,0.001287082,0.00178099,-0.120361616
61.2,,,,-2.637496406,-0.388557674,9.797507225,0.001247237,0.002089088,-0.117509275
61.25,,,,-2.646028746,-0.357322448,9.828417531,0.001150692,0.001686847,-0.11465269
61.3,,,,-2.649142916,-0.328193168,9.842614865,0.001101204,0.000927364,-0.111789218
61.35,,,,-2.647258373,-0.300224719,9.841401611,0.001126803,0.000158099,-0.108919364
61.4,,,,-2.452777841,-0.397546626,9.903442766,0.000734885,-0.001951363,-0.108694275
61.45,,,,-0.772713819,-0.598148445,10.37807999,-0.002430352,-0.014356105,-0.112383696
61.5,,,,-0.043516103,-0.467424413,10.13699986,-0.002766808,-0.02181766,-0.111825563
61.55,,,,-0.000681865,-0.526854722,9.678961392,-0.000543101,-0.019386821,-0.111827253
61.6,,,,0.086201084,-0.521437503,9.45374614,0.001302505,-0.011792936,-0.111840869
61.65,,,,0.108249005,-0.499310964,9.418360418,0.001598239,-0.003062316,-0.11185833
61.7,,,,0.082922652,-0.48045989,9.517113391,0.000605757,0.003771654,-0.111865921
61.75,,,,0.034503834,-0.475146173,9.671815781,-0.000741417,0.007266209,-0.111864765
61.8,,,,-0.01468611,-0.481973915,9.815188099,-0.001620729,0.007465668,-0.111860821
61.85,,,,-0.049508604,-0.493571461,9.907658204,-0.001714626,0.005385839,-0.111858635
61.9,,,,-0.064307407,-0.502814295,9.939010834,-0.001188384,0.002390111,-0.111859766
61.95,,,,-0.061255975,-0.506212107,9.920865508,-0.000440528,-0.000328448,-0.111863681
62,413.2979811,-125.711556,0.676403472,-0.047046414,-0.504128758,9.875498799,0.000160522,-0.002044713,-0.111868818
62.05,,,,-2.059868774,-0.338954089,9.170873772,0.004013803,0.011629292,-0.109216233
62.1,,,,-2.605337416,-0.240226672,9.460276605,0.00388246,0.01957432,-0.10629253
62.15,,,,-2.633568456,-0.18014549,9.898720953,0.001426235,0.018214651,-0.103378096
62.2,,,,-2.720378431,-0.161778295,10.12102602,-0.00056627,0.011793875,-0.100464215
62.25,,,,-2.742054619,-0.159598316,10.16840719,-0.000963284,0.003909211,-0.097551005
62.3,,,,-2.720924089,-0.154148454,10.08616754,-3.60E-05,-0.002553517,-0.094637419
62.35,,,,-2.677448306,-0.13611066,9.946858165,0.001286936,-0.006113964,-0.091723141
62.4,,,,-2.631206328,-0.106979834,9.814111599,0.002182073,-0.006660741,-0.088807793
62.45,,,,-2.596217258,-0.073753618,9.7261591,0.002316642,-0.005019099,-0.085889983
62.5,,,,-2.578645268,-0.04329414,9.693782873,0.001831633,-0.002393572,-0.082968394
62.55,,,,-2.577571672,-0.019097188,9.707238454,0.001103342,0.000112439,-0.080042905
62.6,,,,-1.429348459,0.158103974,10.14549851,-0.001940711,-0.006819888,-0.07319362
62.65,,,,-0.031427774,-0.23098225,10.31178264,-0.00318255,-0.017714746,-0.07398991
62.7,,,,-0.016365701,-0.245797007,9.836566741,-0.001288604,-0.01866908,-0.074047672
62.75,,,,0.071289008,-0.247816424,9.556349318,0.000903532,-0.013507584,-0.074066084
62.8,,,,0.114549411,-0.228497014,9.457946926,0.001773807,-0.005921243,-0.074073554
62.85,,,,0.107234479,-0.207635226,9.503761003,0.001195082,0.000984488,-0.074074065
62.9,,,,0.071042945,-0.197824009,9.628676583,-6.95E-05,0.005339407,-0.074070023
62.95,,,,0.026353741,-0.200772248,9.765787166,-0.00114282,0.006671608,-0.074065123
63,416.119305,-127.4092102,0.676854191,-0.010446956,-0.210787202,9.868921451,-0.001539006,0.005570844,-0.07406206
63.05,,,,1.999656439,-0.381857416,10.57224771,-0.004799146,-0.011034179,-0.076727974
63.1,,,,2.555263312,-0.474554009,10.24086432,-0.00392445,-0.021097673,-0.079664671
63.15,,,,2.599790644,-0.523965931,9.747069053,-0.000970927,-0.020666839,-0.08259399
63.2,,,,2.704619984,-0.531437518,9.475427095,0.001118497,-0.014094356,-0.085527444
63.25,,,,2.739484655,-0.524472713,9.396552275,0.001277629,-0.005370871,-0.088454006
63.3,,,,2.723205457,-0.524368548,9.468471018,-4.68E-05,0.002148727,-0.091366768
63.35,,,,2.677228733,-0.541060939,9.61540802,-0.001751344,0.006597647,-0.094268772
63.4,,,,2.624644415,-0.572237051,9.766414257,-0.002906883,0.007648083,-0.097167105
63.45,,,,2.582919257,-0.609514411,9.874808067,-0.00315781,0.006092549,-0.100066606
63.5,,,,2.560337167,-0.645010264,9.922996218,-0.002681711,0.00324117,-0.102968305
63.55,,,,2.556734896,-0.674838331,9.917242126,-0.001915076,0.00036642,-0.105870731
63.6,,,,2.566416162,-0.699270478,9.877475967,-0.001269148,-0.001660683,-0.108771339
63.65,,,,2.581620962,-0.721001637,9.826801299,-0.000966839,-0.002499745,-0.111667459
63.7,,,,2.595420461,-0.743112012,9.783739172,-0.001021592,-0.002272985,-0.114557065
63.75,,,,2.603462848,-0.767700129,9.758428287,-0.001309148,-0.001382338,-0.117439317
63.8,,,,2.604450071,-0.795450994,9.75249096,-0.001665282,-0.000301452,-0.120314566
63.85,,,,2.599581389,-0.82592072,9.761367332,-0.001960522,0.000588288,-0.123183853
63.9,,,,2.591424125,-0.85813168,9.777645676,-0.00213281,0.001082934,-0.126048264
63.95,,,,2.582717665,-0.891122912,9.794128641,-0.00218334,0.001161545,-0.128908473
64,419.4789871,-129.8760023,0.682727521,2.575494176,-0.924270036,9.805855433,-0.002152293,0.000935198,-0.131764585
64.05,,,,2.57068706,-0.957357794,9.810837256,-0.002091204,0.000572252,-0.134616227
64.15,,,,2.567233396,-1.023922222,9.804677358,-0.002030193,9.22E-06,-0.140303397
64.2,,,,2.566792045,-1.057947873,9.798449067,-0.002058864,-5.60E-05,-0.143137561
64.25,,,,2.566004547,-1.092782306,9.793209215,-0.002119528,1.00E-05,-0.145964797
64.3,,,,2.564368161,-1.128538421,9.790168454,-0.002196521,0.000151257,-0.148784882
